{
  "billablePeriod": {
    "start": "2021-11-13T21:51:44+00:00",
    "end": "2022-11-13T21:51:44+00:00"
  },
  "careTeam": [
    {
      "sequence": 1,
      "provider": {
        "extension": [
          {
            "id": "sourceId",
            "url": "https://www.icanbwell.com/sourceId",
            "valueString": "Practitioner/unknown"
          },
          {
            "id": "uuid",
            "url": "https://www.icanbwell.com/uuid",
            "valueString": "Practitioner/9d8ad331-8657-51af-92ca-8de68dc7512d"
          },
          {
            "id": "sourceAssigningAuthority",
            "url": "https://www.icanbwell.com/sourceAssigningAuthority",
            "valueString": "synthea"
          }
        ],
        "reference": "Practitioner/unknown"
      },
      "role": {
        "coding": [
          {
            "id": "552798d5-5f9a-5b74-a48c-e85209b21037",
            "system": "http://terminology.hl7.org/CodeSystem/claimcareteamrole",
            "code": "primary",
            "display": "Primary provider"
          }
        ]
      }
    }
  ],
  "claim": {
    "extension": [
      {
        "id": "sourceId",
        "url": "https://www.icanbwell.com/sourceId",
        "valueString": "Claim/ac59c2e9-d108-03bd-ee32-8c213b0dacde"
      },
      {
        "id": "uuid",
        "url": "https://www.icanbwell.com/uuid",
        "valueString": "Claim/ac59c2e9-d108-03bd-ee32-8c213b0dacde"
      },
      {
        "id": "sourceAssigningAuthority",
        "url": "https://www.icanbwell.com/sourceAssigningAuthority",
        "valueString": "synthea"
      }
    ],
    "reference": "Claim/ac59c2e9-d108-03bd-ee32-8c213b0dacde"
  },
  "contained": [
    {
      "resourceType": "ServiceRequest",
      "id": "referral",
      "status": "completed",
      "intent": "order",
      "subject": {
        "extension": [
          {
            "id": "sourceId",
            "url": "https://www.icanbwell.com/sourceId",
            "valueString": "Patient/ac59c2e9-d108-03bd-b501-c330d80054eb"
          },
          {
            "id": "uuid",
            "url": "https://www.icanbwell.com/uuid",
            "valueString": "Patient/ac59c2e9-d108-03bd-b501-c330d80054eb"
          },
          {
            "id": "sourceAssigningAuthority",
            "url": "https://www.icanbwell.com/sourceAssigningAuthority",
            "valueString": "synthea"
          }
        ],
        "reference": "Patient/ac59c2e9-d108-03bd-b501-c330d80054eb"
      },
      "requester": {
        "extension": [
          {
            "id": "sourceId",
            "url": "https://www.icanbwell.com/sourceId",
            "valueString": "Practitioner/unknown"
          },
          {
            "id": "uuid",
            "url": "https://www.icanbwell.com/uuid",
            "valueString": "Practitioner/9d8ad331-8657-51af-92ca-8de68dc7512d"
          },
          {
            "id": "sourceAssigningAuthority",
            "url": "https://www.icanbwell.com/sourceAssigningAuthority",
            "valueString": "synthea"
          }
        ],
        "reference": "Practitioner/unknown"
      },
      "performer": [
        {
          "extension": [
            {
              "id": "sourceId",
              "url": "https://www.icanbwell.com/sourceId",
              "valueString": "Practitioner/unknown"
            },
            {
              "id": "uuid",
              "url": "https://www.icanbwell.com/uuid",
              "valueString": "Practitioner/9d8ad331-8657-51af-92ca-8de68dc7512d"
            },
            {
              "id": "sourceAssigningAuthority",
              "url": "https://www.icanbwell.com/sourceAssigningAuthority",
              "valueString": "synthea"
            }
          ],
          "reference": "Practitioner/unknown"
        }
      ]
    },
    {
      "resourceType": "Coverage",
      "id": "coverage",
      "status": "active",
      "type": {
        "text": "Humana"
      },
      "beneficiary": {
        "extension": [
          {
            "id": "sourceId",
            "url": "https://www.icanbwell.com/sourceId",
            "valueString": "Patient/ac59c2e9-d108-03bd-b501-c330d80054eb"
          },
          {
            "id": "uuid",
            "url": "https://www.icanbwell.com/uuid",
            "valueString": "Patient/ac59c2e9-d108-03bd-b501-c330d80054eb"
          },
          {
            "id": "sourceAssigningAuthority",
            "url": "https://www.icanbwell.com/sourceAssigningAuthority",
            "valueString": "synthea"
          }
        ],
        "reference": "Patient/ac59c2e9-d108-03bd-b501-c330d80054eb"
      },
      "payor": [
        {
          "display": "Humana"
        }
      ]
    }
  ],
  "created": "2021-11-13T21:51:44+00:00",
  "facility": {
    "extension": [
      {
        "id": "sourceId",
        "url": "https://www.icanbwell.com/sourceId",
        "valueString": "Location/unknown"
      },
      {
        "id": "uuid",
        "url": "https://www.icanbwell.com/uuid",
        "valueString": "Location/9d8ad331-8657-51af-92ca-8de68dc7512d"
      },
      {
        "id": "sourceAssigningAuthority",
        "url": "https://www.icanbwell.com/sourceAssigningAuthority",
        "valueString": "synthea"
      }
    ],
    "reference": "Location/unknown",
    "display": "NEW ENGLAND FAMILY HEALTH LLC"
  },
  "id": "140dec0c-f4c5-1976-b8e0-700565da0305",
  "identifier": [
    {
      "system": "https://bluebutton.cms.gov/resources/variables/clm_id",
      "value": "ac59c2e9-d108-03bd-ee32-8c213b0dacde"
    },
    {
      "system": "https://bluebutton.cms.gov/resources/identifier/claim-group",
      "value": "99999999999"
    },
    {
      "id": "sourceId",
      "system": "https://www.icanbwell.com/sourceId",
      "value": "140dec0c-f4c5-1976-b8e0-700565da0305"
    },
    {
      "id": "uuid",
      "system": "https://www.icanbwell.com/uuid",
      "value": "140dec0c-f4c5-1976-b8e0-700565da0305"
    }
  ],
  "insurance": [
    {
      "focal": true,
      "coverage": {
        "extension": [
          {
            "id": "sourceId",
            "url": "https://www.icanbwell.com/sourceId",
            "valueString": "#coverage"
          },
          {
            "id": "uuid",
            "url": "https://www.icanbwell.com/uuid",
            "valueString": "ac7798ae-c8b1-5de1-befe-852987d3adeb"
          },
          {
            "id": "sourceAssigningAuthority",
            "url": "https://www.icanbwell.com/sourceAssigningAuthority",
            "valueString": "synthea"
          }
        ],
        "reference": "#coverage",
        "display": "Humana"
      }
    }
  ],
  "insurer": {
    "display": "Humana"
  },
  "item": [
    {
      "sequence": 1,
      "category": {
        "coding": [
          {
            "id": "295af87c-7be2-5716-a727-d01c781be9a4",
            "system": "https://bluebutton.cms.gov/resources/variables/line_cms_type_srvc_cd",
            "code": "1",
            "display": "Medical care"
          }
        ]
      },
      "productOrService": {
        "coding": [
          {
            "id": "5f3f7e1e-4e16-5be3-bf51-8567c7008bb5",
            "system": "http://snomed.info/sct",
            "code": "162673000",
            "display": "General examination of patient (procedure)"
          }
        ],
        "text": "General examination of patient (procedure)"
      },
      "servicedPeriod": {
        "start": "2021-11-13T20:58:10+00:00",
        "end": "2021-11-13T21:51:44+00:00"
      },
      "locationCodeableConcept": {
        "coding": [
          {
            "id": "74c37635-29ee-5dff-806c-81eae5af7d04",
            "system": "http://terminology.hl7.org/CodeSystem/ex-serviceplace",
            "code": "19",
            "display": "Off Campus-Outpatient Hospital"
          }
        ]
      },
      "encounter": [
        {
          "extension": [
            {
              "id": "sourceId",
              "url": "https://www.icanbwell.com/sourceId",
              "valueString": "Encounter/ac59c2e9-d108-03bd-ff10-a216139fc185"
            },
            {
              "id": "uuid",
              "url": "https://www.icanbwell.com/uuid",
              "valueString": "Encounter/ac59c2e9-d108-03bd-ff10-a216139fc185"
            },
            {
              "id": "sourceAssigningAuthority",
              "url": "https://www.icanbwell.com/sourceAssigningAuthority",
              "valueString": "synthea"
            }
          ],
          "reference": "Encounter/ac59c2e9-d108-03bd-ff10-a216139fc185"
        }
      ]
    },
    {
      "sequence": 2,
      "informationSequence": [
        1
      ],
      "category": {
        "coding": [
          {
            "id": "295af87c-7be2-5716-a727-d01c781be9a4",
            "system": "https://bluebutton.cms.gov/resources/variables/line_cms_type_srvc_cd",
            "code": "1",
            "display": "Medical care"
          }
        ]
      },
      "productOrService": {
        "coding": [
          {
            "id": "8e7fd1ee-4879-52ed-905d-6b18af6eb999",
            "system": "http://hl7.org/fhir/sid/cvx",
            "code": "140",
            "display": "Influenza, seasonal, injectable, preservative free"
          }
        ],
        "text": "Influenza, seasonal, injectable, preservative free"
      },
      "servicedPeriod": {
        "start": "2021-11-13T20:58:10+00:00",
        "end": "2021-11-13T21:51:44+00:00"
      },
      "locationCodeableConcept": {
        "coding": [
          {
            "id": "74c37635-29ee-5dff-806c-81eae5af7d04",
            "system": "http://terminology.hl7.org/CodeSystem/ex-serviceplace",
            "code": "19",
            "display": "Off Campus-Outpatient Hospital"
          }
        ]
      },
      "net": {
        "value": 136,
        "currency": "USD"
      },
      "adjudication": [
        {
          "category": {
            "coding": [
              {
                "id": "e33f1fb9-52f8-5909-b4b3-ddd8cd5abfb6",
                "system": "https://bluebutton.cms.gov/resources/codesystem/adjudication",
                "code": "https://bluebutton.cms.gov/resources/variables/line_coinsrnc_amt",
                "display": "Line Beneficiary Coinsurance Amount"
              }
            ]
          },
          "amount": {
            "value": 27.200000000000003,
            "currency": "USD"
          }
        },
        {
          "category": {
            "coding": [
              {
                "id": "013c0dff-5302-5406-95cc-6c3a033aad23",
                "system": "https://bluebutton.cms.gov/resources/codesystem/adjudication",
                "code": "https://bluebutton.cms.gov/resources/variables/line_prvdr_pmt_amt",
                "display": "Line Provider Payment Amount"
              }
            ]
          },
          "amount": {
            "value": 108.80000000000001,
            "currency": "USD"
          }
        },
        {
          "category": {
            "coding": [
              {
                "id": "d7c793d6-cfa7-5320-bc80-8dcdd65bba53",
                "system": "https://bluebutton.cms.gov/resources/codesystem/adjudication",
                "code": "https://bluebutton.cms.gov/resources/variables/line_sbmtd_chrg_amt",
                "display": "Line Submitted Charge Amount"
              }
            ]
          },
          "amount": {
            "value": 136,
            "currency": "USD"
          }
        },
        {
          "category": {
            "coding": [
              {
                "id": "28126ede-f7f8-5665-990c-c10ba934bc40",
                "system": "https://bluebutton.cms.gov/resources/codesystem/adjudication",
                "code": "https://bluebutton.cms.gov/resources/variables/line_alowd_chrg_amt",
                "display": "Line Allowed Charge Amount"
              }
            ]
          },
          "amount": {
            "value": 136,
            "currency": "USD"
          }
        },
        {
          "category": {
            "coding": [
              {
                "id": "b0971df9-d97f-5f01-8903-9cfd3330386e",
                "system": "https://bluebutton.cms.gov/resources/codesystem/adjudication",
                "code": "https://bluebutton.cms.gov/resources/variables/line_bene_ptb_ddctbl_amt",
                "display": "Line Beneficiary Part B Deductible Amount"
              }
            ]
          },
          "amount": {
            "value": 0,
            "currency": "USD"
          }
        },
        {
          "category": {
            "coding": [
              {
                "id": "8ef27c8a-80f3-5ec1-a673-c894f368a84b",
                "system": "https://bluebutton.cms.gov/resources/codesystem/adjudication",
                "code": "https://bluebutton.cms.gov/resources/variables/line_prcsg_ind_cd",
                "display": "Line Processing Indicator Code"
              }
            ]
          }
        }
      ]
    },
    {
      "sequence": 3,
      "category": {
        "coding": [
          {
            "id": "295af87c-7be2-5716-a727-d01c781be9a4",
            "system": "https://bluebutton.cms.gov/resources/variables/line_cms_type_srvc_cd",
            "code": "1",
            "display": "Medical care"
          }
        ]
      },
      "productOrService": {
        "coding": [
          {
            "id": "fc6cd6b0-d7e2-5eb0-8408-c330be87bb84",
            "system": "http://snomed.info/sct",
            "code": "430193006",
            "display": "Medication reconciliation (procedure)"
          }
        ],
        "text": "Medication reconciliation (procedure)"
      },
      "servicedPeriod": {
        "start": "2021-11-13T20:58:10+00:00",
        "end": "2021-11-13T21:51:44+00:00"
      },
      "locationCodeableConcept": {
        "coding": [
          {
            "id": "74c37635-29ee-5dff-806c-81eae5af7d04",
            "system": "http://terminology.hl7.org/CodeSystem/ex-serviceplace",
            "code": "19",
            "display": "Off Campus-Outpatient Hospital"
          }
        ]
      },
      "net": {
        "value": 215.7,
        "currency": "USD"
      },
      "adjudication": [
        {
          "category": {
            "coding": [
              {
                "id": "e33f1fb9-52f8-5909-b4b3-ddd8cd5abfb6",
                "system": "https://bluebutton.cms.gov/resources/codesystem/adjudication",
                "code": "https://bluebutton.cms.gov/resources/variables/line_coinsrnc_amt",
                "display": "Line Beneficiary Coinsurance Amount"
              }
            ]
          },
          "amount": {
            "value": 43.14,
            "currency": "USD"
          }
        },
        {
          "category": {
            "coding": [
              {
                "id": "013c0dff-5302-5406-95cc-6c3a033aad23",
                "system": "https://bluebutton.cms.gov/resources/codesystem/adjudication",
                "code": "https://bluebutton.cms.gov/resources/variables/line_prvdr_pmt_amt",
                "display": "Line Provider Payment Amount"
              }
            ]
          },
          "amount": {
            "value": 172.56,
            "currency": "USD"
          }
        },
        {
          "category": {
            "coding": [
              {
                "id": "d7c793d6-cfa7-5320-bc80-8dcdd65bba53",
                "system": "https://bluebutton.cms.gov/resources/codesystem/adjudication",
                "code": "https://bluebutton.cms.gov/resources/variables/line_sbmtd_chrg_amt",
                "display": "Line Submitted Charge Amount"
              }
            ]
          },
          "amount": {
            "value": 215.7,
            "currency": "USD"
          }
        },
        {
          "category": {
            "coding": [
              {
                "id": "28126ede-f7f8-5665-990c-c10ba934bc40",
                "system": "https://bluebutton.cms.gov/resources/codesystem/adjudication",
                "code": "https://bluebutton.cms.gov/resources/variables/line_alowd_chrg_amt",
                "display": "Line Allowed Charge Amount"
              }
            ]
          },
          "amount": {
            "value": 215.7,
            "currency": "USD"
          }
        },
        {
          "category": {
            "coding": [
              {
                "id": "b0971df9-d97f-5f01-8903-9cfd3330386e",
                "system": "https://bluebutton.cms.gov/resources/codesystem/adjudication",
                "code": "https://bluebutton.cms.gov/resources/variables/line_bene_ptb_ddctbl_amt",
                "display": "Line Beneficiary Part B Deductible Amount"
              }
            ]
          },
          "amount": {
            "value": 0,
            "currency": "USD"
          }
        },
        {
          "category": {
            "coding": [
              {
                "id": "8ef27c8a-80f3-5ec1-a673-c894f368a84b",
                "system": "https://bluebutton.cms.gov/resources/codesystem/adjudication",
                "code": "https://bluebutton.cms.gov/resources/variables/line_prcsg_ind_cd",
                "display": "Line Processing Indicator Code"
              }
            ]
          }
        }
      ]
    },
    {
      "sequence": 4,
      "informationSequence": [
        2
      ],
      "category": {
        "coding": [
          {
            "id": "295af87c-7be2-5716-a727-d01c781be9a4",
            "system": "https://bluebutton.cms.gov/resources/variables/line_cms_type_srvc_cd",
            "code": "1",
            "display": "Medical care"
          }
        ]
      },
      "productOrService": {
        "coding": [
          {
            "id": "22e1b93c-8e65-55fe-8a1b-11a039fb50b3",
            "system": "http://snomed.info/sct",
            "code": "1137596000",
            "display": "Blood lancet (physical object)"
          }
        ],
        "text": "Blood lancet (physical object)"
      },
      "servicedPeriod": {
        "start": "2021-11-13T20:58:10+00:00",
        "end": "2021-11-13T21:51:44+00:00"
      },
      "locationCodeableConcept": {
        "coding": [
          {
            "id": "74c37635-29ee-5dff-806c-81eae5af7d04",
            "system": "http://terminology.hl7.org/CodeSystem/ex-serviceplace",
            "code": "19",
            "display": "Off Campus-Outpatient Hospital"
          }
        ]
      },
      "net": {
        "value": 0,
        "currency": "USD"
      },
      "adjudication": [
        {
          "category": {
            "coding": [
              {
                "id": "e33f1fb9-52f8-5909-b4b3-ddd8cd5abfb6",
                "system": "https://bluebutton.cms.gov/resources/codesystem/adjudication",
                "code": "https://bluebutton.cms.gov/resources/variables/line_coinsrnc_amt",
                "display": "Line Beneficiary Coinsurance Amount"
              }
            ]
          },
          "amount": {
            "value": 0,
            "currency": "USD"
          }
        },
        {
          "category": {
            "coding": [
              {
                "id": "013c0dff-5302-5406-95cc-6c3a033aad23",
                "system": "https://bluebutton.cms.gov/resources/codesystem/adjudication",
                "code": "https://bluebutton.cms.gov/resources/variables/line_prvdr_pmt_amt",
                "display": "Line Provider Payment Amount"
              }
            ]
          },
          "amount": {
            "value": 0,
            "currency": "USD"
          }
        },
        {
          "category": {
            "coding": [
              {
                "id": "d7c793d6-cfa7-5320-bc80-8dcdd65bba53",
                "system": "https://bluebutton.cms.gov/resources/codesystem/adjudication",
                "code": "https://bluebutton.cms.gov/resources/variables/line_sbmtd_chrg_amt",
                "display": "Line Submitted Charge Amount"
              }
            ]
          },
          "amount": {
            "value": 0,
            "currency": "USD"
          }
        },
        {
          "category": {
            "coding": [
              {
                "id": "28126ede-f7f8-5665-990c-c10ba934bc40",
                "system": "https://bluebutton.cms.gov/resources/codesystem/adjudication",
                "code": "https://bluebutton.cms.gov/resources/variables/line_alowd_chrg_amt",
                "display": "Line Allowed Charge Amount"
              }
            ]
          },
          "amount": {
            "value": 0,
            "currency": "USD"
          }
        },
        {
          "category": {
            "coding": [
              {
                "id": "b0971df9-d97f-5f01-8903-9cfd3330386e",
                "system": "https://bluebutton.cms.gov/resources/codesystem/adjudication",
                "code": "https://bluebutton.cms.gov/resources/variables/line_bene_ptb_ddctbl_amt",
                "display": "Line Beneficiary Part B Deductible Amount"
              }
            ]
          },
          "amount": {
            "value": 0,
            "currency": "USD"
          }
        },
        {
          "category": {
            "coding": [
              {
                "id": "8ef27c8a-80f3-5ec1-a673-c894f368a84b",
                "system": "https://bluebutton.cms.gov/resources/codesystem/adjudication",
                "code": "https://bluebutton.cms.gov/resources/variables/line_prcsg_ind_cd",
                "display": "Line Processing Indicator Code"
              }
            ]
          }
        }
      ]
    },
    {
      "sequence": 5,
      "informationSequence": [
        3
      ],
      "category": {
        "coding": [
          {
            "id": "295af87c-7be2-5716-a727-d01c781be9a4",
            "system": "https://bluebutton.cms.gov/resources/variables/line_cms_type_srvc_cd",
            "code": "1",
            "display": "Medical care"
          }
        ]
      },
      "productOrService": {
        "coding": [
          {
            "id": "782d5961-2164-5215-8a13-f18ca14c0401",
            "system": "http://loinc.org",
            "code": "51990-0",
            "display": "Basic metabolic panel - Blood"
          }
        ],
        "text": "Basic metabolic panel - Blood"
      },
      "servicedPeriod": {
        "start": "2021-11-13T20:58:10+00:00",
        "end": "2021-11-13T21:51:44+00:00"
      },
      "locationCodeableConcept": {
        "coding": [
          {
            "id": "74c37635-29ee-5dff-806c-81eae5af7d04",
            "system": "http://terminology.hl7.org/CodeSystem/ex-serviceplace",
            "code": "19",
            "display": "Off Campus-Outpatient Hospital"
          }
        ]
      },
      "net": {
        "value": 74.58,
        "currency": "USD"
      },
      "adjudication": [
        {
          "category": {
            "coding": [
              {
                "id": "e33f1fb9-52f8-5909-b4b3-ddd8cd5abfb6",
                "system": "https://bluebutton.cms.gov/resources/codesystem/adjudication",
                "code": "https://bluebutton.cms.gov/resources/variables/line_coinsrnc_amt",
                "display": "Line Beneficiary Coinsurance Amount"
              }
            ]
          },
          "amount": {
            "value": 14.916,
            "currency": "USD"
          }
        },
        {
          "category": {
            "coding": [
              {
                "id": "013c0dff-5302-5406-95cc-6c3a033aad23",
                "system": "https://bluebutton.cms.gov/resources/codesystem/adjudication",
                "code": "https://bluebutton.cms.gov/resources/variables/line_prvdr_pmt_amt",
                "display": "Line Provider Payment Amount"
              }
            ]
          },
          "amount": {
            "value": 59.664,
            "currency": "USD"
          }
        },
        {
          "category": {
            "coding": [
              {
                "id": "d7c793d6-cfa7-5320-bc80-8dcdd65bba53",
                "system": "https://bluebutton.cms.gov/resources/codesystem/adjudication",
                "code": "https://bluebutton.cms.gov/resources/variables/line_sbmtd_chrg_amt",
                "display": "Line Submitted Charge Amount"
              }
            ]
          },
          "amount": {
            "value": 74.58,
            "currency": "USD"
          }
        },
        {
          "category": {
            "coding": [
              {
                "id": "28126ede-f7f8-5665-990c-c10ba934bc40",
                "system": "https://bluebutton.cms.gov/resources/codesystem/adjudication",
                "code": "https://bluebutton.cms.gov/resources/variables/line_alowd_chrg_amt",
                "display": "Line Allowed Charge Amount"
              }
            ]
          },
          "amount": {
            "value": 74.58,
            "currency": "USD"
          }
        },
        {
          "category": {
            "coding": [
              {
                "id": "b0971df9-d97f-5f01-8903-9cfd3330386e",
                "system": "https://bluebutton.cms.gov/resources/codesystem/adjudication",
                "code": "https://bluebutton.cms.gov/resources/variables/line_bene_ptb_ddctbl_amt",
                "display": "Line Beneficiary Part B Deductible Amount"
              }
            ]
          },
          "amount": {
            "value": 0,
            "currency": "USD"
          }
        },
        {
          "category": {
            "coding": [
              {
                "id": "8ef27c8a-80f3-5ec1-a673-c894f368a84b",
                "system": "https://bluebutton.cms.gov/resources/codesystem/adjudication",
                "code": "https://bluebutton.cms.gov/resources/variables/line_prcsg_ind_cd",
                "display": "Line Processing Indicator Code"
              }
            ]
          }
        }
      ]
    },
    {
      "sequence": 6,
      "category": {
        "coding": [
          {
            "id": "295af87c-7be2-5716-a727-d01c781be9a4",
            "system": "https://bluebutton.cms.gov/resources/variables/line_cms_type_srvc_cd",
            "code": "1",
            "display": "Medical care"
          }
        ]
      },
      "productOrService": {
        "coding": [
          {
            "id": "05211507-105a-5197-987a-b015aa2af257",
            "system": "http://snomed.info/sct",
            "code": "710824005",
            "display": "Assessment of health and social care needs (procedure)"
          }
        ],
        "text": "Assessment of health and social care needs (procedure)"
      },
      "servicedPeriod": {
        "start": "2021-11-13T20:58:10+00:00",
        "end": "2021-11-13T21:51:44+00:00"
      },
      "locationCodeableConcept": {
        "coding": [
          {
            "id": "74c37635-29ee-5dff-806c-81eae5af7d04",
            "system": "http://terminology.hl7.org/CodeSystem/ex-serviceplace",
            "code": "19",
            "display": "Off Campus-Outpatient Hospital"
          }
        ]
      },
      "net": {
        "value": 431.4,
        "currency": "USD"
      },
      "adjudication": [
        {
          "category": {
            "coding": [
              {
                "id": "e33f1fb9-52f8-5909-b4b3-ddd8cd5abfb6",
                "system": "https://bluebutton.cms.gov/resources/codesystem/adjudication",
                "code": "https://bluebutton.cms.gov/resources/variables/line_coinsrnc_amt",
                "display": "Line Beneficiary Coinsurance Amount"
              }
            ]
          },
          "amount": {
            "value": 86.28,
            "currency": "USD"
          }
        },
        {
          "category": {
            "coding": [
              {
                "id": "013c0dff-5302-5406-95cc-6c3a033aad23",
                "system": "https://bluebutton.cms.gov/resources/codesystem/adjudication",
                "code": "https://bluebutton.cms.gov/resources/variables/line_prvdr_pmt_amt",
                "display": "Line Provider Payment Amount"
              }
            ]
          },
          "amount": {
            "value": 345.12,
            "currency": "USD"
          }
        },
        {
          "category": {
            "coding": [
              {
                "id": "d7c793d6-cfa7-5320-bc80-8dcdd65bba53",
                "system": "https://bluebutton.cms.gov/resources/codesystem/adjudication",
                "code": "https://bluebutton.cms.gov/resources/variables/line_sbmtd_chrg_amt",
                "display": "Line Submitted Charge Amount"
              }
            ]
          },
          "amount": {
            "value": 431.4,
            "currency": "USD"
          }
        },
        {
          "category": {
            "coding": [
              {
                "id": "28126ede-f7f8-5665-990c-c10ba934bc40",
                "system": "https://bluebutton.cms.gov/resources/codesystem/adjudication",
                "code": "https://bluebutton.cms.gov/resources/variables/line_alowd_chrg_amt",
                "display": "Line Allowed Charge Amount"
              }
            ]
          },
          "amount": {
            "value": 431.4,
            "currency": "USD"
          }
        },
        {
          "category": {
            "coding": [
              {
                "id": "b0971df9-d97f-5f01-8903-9cfd3330386e",
                "system": "https://bluebutton.cms.gov/resources/codesystem/adjudication",
                "code": "https://bluebutton.cms.gov/resources/variables/line_bene_ptb_ddctbl_amt",
                "display": "Line Beneficiary Part B Deductible Amount"
              }
            ]
          },
          "amount": {
            "value": 0,
            "currency": "USD"
          }
        },
        {
          "category": {
            "coding": [
              {
                "id": "8ef27c8a-80f3-5ec1-a673-c894f368a84b",
                "system": "https://bluebutton.cms.gov/resources/codesystem/adjudication",
                "code": "https://bluebutton.cms.gov/resources/variables/line_prcsg_ind_cd",
                "display": "Line Processing Indicator Code"
              }
            ]
          }
        }
      ]
    },
    {
      "sequence": 7,
      "category": {
        "coding": [
          {
            "id": "295af87c-7be2-5716-a727-d01c781be9a4",
            "system": "https://bluebutton.cms.gov/resources/variables/line_cms_type_srvc_cd",
            "code": "1",
            "display": "Medical care"
          }
        ]
      },
      "productOrService": {
        "coding": [
          {
            "id": "2ab87f86-de40-5e76-a628-b6ecdcbb0053",
            "system": "http://snomed.info/sct",
            "code": "171207006",
            "display": "Depression screening (procedure)"
          }
        ],
        "text": "Depression screening (procedure)"
      },
      "servicedPeriod": {
        "start": "2021-11-13T20:58:10+00:00",
        "end": "2021-11-13T21:51:44+00:00"
      },
      "locationCodeableConcept": {
        "coding": [
          {
            "id": "74c37635-29ee-5dff-806c-81eae5af7d04",
            "system": "http://terminology.hl7.org/CodeSystem/ex-serviceplace",
            "code": "19",
            "display": "Off Campus-Outpatient Hospital"
          }
        ]
      },
      "net": {
        "value": 431.4,
        "currency": "USD"
      },
      "adjudication": [
        {
          "category": {
            "coding": [
              {
                "id": "e33f1fb9-52f8-5909-b4b3-ddd8cd5abfb6",
                "system": "https://bluebutton.cms.gov/resources/codesystem/adjudication",
                "code": "https://bluebutton.cms.gov/resources/variables/line_coinsrnc_amt",
                "display": "Line Beneficiary Coinsurance Amount"
              }
            ]
          },
          "amount": {
            "value": 86.28,
            "currency": "USD"
          }
        },
        {
          "category": {
            "coding": [
              {
                "id": "013c0dff-5302-5406-95cc-6c3a033aad23",
                "system": "https://bluebutton.cms.gov/resources/codesystem/adjudication",
                "code": "https://bluebutton.cms.gov/resources/variables/line_prvdr_pmt_amt",
                "display": "Line Provider Payment Amount"
              }
            ]
          },
          "amount": {
            "value": 345.12,
            "currency": "USD"
          }
        },
        {
          "category": {
            "coding": [
              {
                "id": "d7c793d6-cfa7-5320-bc80-8dcdd65bba53",
                "system": "https://bluebutton.cms.gov/resources/codesystem/adjudication",
                "code": "https://bluebutton.cms.gov/resources/variables/line_sbmtd_chrg_amt",
                "display": "Line Submitted Charge Amount"
              }
            ]
          },
          "amount": {
            "value": 431.4,
            "currency": "USD"
          }
        },
        {
          "category": {
            "coding": [
              {
                "id": "28126ede-f7f8-5665-990c-c10ba934bc40",
                "system": "https://bluebutton.cms.gov/resources/codesystem/adjudication",
                "code": "https://bluebutton.cms.gov/resources/variables/line_alowd_chrg_amt",
                "display": "Line Allowed Charge Amount"
              }
            ]
          },
          "amount": {
            "value": 431.4,
            "currency": "USD"
          }
        },
        {
          "category": {
            "coding": [
              {
                "id": "b0971df9-d97f-5f01-8903-9cfd3330386e",
                "system": "https://bluebutton.cms.gov/resources/codesystem/adjudication",
                "code": "https://bluebutton.cms.gov/resources/variables/line_bene_ptb_ddctbl_amt",
                "display": "Line Beneficiary Part B Deductible Amount"
              }
            ]
          },
          "amount": {
            "value": 0,
            "currency": "USD"
          }
        },
        {
          "category": {
            "coding": [
              {
                "id": "8ef27c8a-80f3-5ec1-a673-c894f368a84b",
                "system": "https://bluebutton.cms.gov/resources/codesystem/adjudication",
                "code": "https://bluebutton.cms.gov/resources/variables/line_prcsg_ind_cd",
                "display": "Line Processing Indicator Code"
              }
            ]
          }
        }
      ]
    },
    {
      "sequence": 8,
      "category": {
        "coding": [
          {
            "id": "295af87c-7be2-5716-a727-d01c781be9a4",
            "system": "https://bluebutton.cms.gov/resources/variables/line_cms_type_srvc_cd",
            "code": "1",
            "display": "Medical care"
          }
        ]
      },
      "productOrService": {
        "coding": [
          {
            "id": "2ab87f86-de40-5e76-a628-b6ecdcbb0053",
            "system": "http://snomed.info/sct",
            "code": "171207006",
            "display": "Depression screening (procedure)"
          }
        ],
        "text": "Depression screening (procedure)"
      },
      "servicedPeriod": {
        "start": "2021-11-13T20:58:10+00:00",
        "end": "2021-11-13T21:51:44+00:00"
      },
      "locationCodeableConcept": {
        "coding": [
          {
            "id": "74c37635-29ee-5dff-806c-81eae5af7d04",
            "system": "http://terminology.hl7.org/CodeSystem/ex-serviceplace",
            "code": "19",
            "display": "Off Campus-Outpatient Hospital"
          }
        ]
      },
      "net": {
        "value": 431.4,
        "currency": "USD"
      },
      "adjudication": [
        {
          "category": {
            "coding": [
              {
                "id": "e33f1fb9-52f8-5909-b4b3-ddd8cd5abfb6",
                "system": "https://bluebutton.cms.gov/resources/codesystem/adjudication",
                "code": "https://bluebutton.cms.gov/resources/variables/line_coinsrnc_amt",
                "display": "Line Beneficiary Coinsurance Amount"
              }
            ]
          },
          "amount": {
            "value": 86.28,
            "currency": "USD"
          }
        },
        {
          "category": {
            "coding": [
              {
                "id": "013c0dff-5302-5406-95cc-6c3a033aad23",
                "system": "https://bluebutton.cms.gov/resources/codesystem/adjudication",
                "code": "https://bluebutton.cms.gov/resources/variables/line_prvdr_pmt_amt",
                "display": "Line Provider Payment Amount"
              }
            ]
          },
          "amount": {
            "value": 345.12,
            "currency": "USD"
          }
        },
        {
          "category": {
            "coding": [
              {
                "id": "d7c793d6-cfa7-5320-bc80-8dcdd65bba53",
                "system": "https://bluebutton.cms.gov/resources/codesystem/adjudication",
                "code": "https://bluebutton.cms.gov/resources/variables/line_sbmtd_chrg_amt",
                "display": "Line Submitted Charge Amount"
              }
            ]
          },
          "amount": {
            "value": 431.4,
            "currency": "USD"
          }
        },
        {
          "category": {
            "coding": [
              {
                "id": "28126ede-f7f8-5665-990c-c10ba934bc40",
                "system": "https://bluebutton.cms.gov/resources/codesystem/adjudication",
                "code": "https://bluebutton.cms.gov/resources/variables/line_alowd_chrg_amt",
                "display": "Line Allowed Charge Amount"
              }
            ]
          },
          "amount": {
            "value": 431.4,
            "currency": "USD"
          }
        },
        {
          "category": {
            "coding": [
              {
                "id": "b0971df9-d97f-5f01-8903-9cfd3330386e",
                "system": "https://bluebutton.cms.gov/resources/codesystem/adjudication",
                "code": "https://bluebutton.cms.gov/resources/variables/line_bene_ptb_ddctbl_amt",
                "display": "Line Beneficiary Part B Deductible Amount"
              }
            ]
          },
          "amount": {
            "value": 0,
            "currency": "USD"
          }
        },
        {
          "category": {
            "coding": [
              {
                "id": "8ef27c8a-80f3-5ec1-a673-c894f368a84b",
                "system": "https://bluebutton.cms.gov/resources/codesystem/adjudication",
                "code": "https://bluebutton.cms.gov/resources/variables/line_prcsg_ind_cd",
                "display": "Line Processing Indicator Code"
              }
            ]
          }
        }
      ]
    },
    {
      "sequence": 9,
      "informationSequence": [
        4
      ],
      "category": {
        "coding": [
          {
            "id": "295af87c-7be2-5716-a727-d01c781be9a4",
            "system": "https://bluebutton.cms.gov/resources/variables/line_cms_type_srvc_cd",
            "code": "1",
            "display": "Medical care"
          }
        ]
      },
      "productOrService": {
        "coding": [
          {
            "id": "9d47ee7f-0f8f-5cd9-a212-f39a17b7ca72",
            "system": "http://loinc.org",
            "code": "55757-9",
            "display": "Patient Health Questionnaire 2 item (PHQ-2) [Reported]"
          }
        ],
        "text": "Patient Health Questionnaire 2 item (PHQ-2) [Reported]"
      },
      "servicedPeriod": {
        "start": "2021-11-13T20:58:10+00:00",
        "end": "2021-11-13T21:51:44+00:00"
      },
      "locationCodeableConcept": {
        "coding": [
          {
            "id": "74c37635-29ee-5dff-806c-81eae5af7d04",
            "system": "http://terminology.hl7.org/CodeSystem/ex-serviceplace",
            "code": "19",
            "display": "Off Campus-Outpatient Hospital"
          }
        ]
      },
      "net": {
        "value": 74.58,
        "currency": "USD"
      },
      "adjudication": [
        {
          "category": {
            "coding": [
              {
                "id": "e33f1fb9-52f8-5909-b4b3-ddd8cd5abfb6",
                "system": "https://bluebutton.cms.gov/resources/codesystem/adjudication",
                "code": "https://bluebutton.cms.gov/resources/variables/line_coinsrnc_amt",
                "display": "Line Beneficiary Coinsurance Amount"
              }
            ]
          },
          "amount": {
            "value": 14.916,
            "currency": "USD"
          }
        },
        {
          "category": {
            "coding": [
              {
                "id": "013c0dff-5302-5406-95cc-6c3a033aad23",
                "system": "https://bluebutton.cms.gov/resources/codesystem/adjudication",
                "code": "https://bluebutton.cms.gov/resources/variables/line_prvdr_pmt_amt",
                "display": "Line Provider Payment Amount"
              }
            ]
          },
          "amount": {
            "value": 59.664,
            "currency": "USD"
          }
        },
        {
          "category": {
            "coding": [
              {
                "id": "d7c793d6-cfa7-5320-bc80-8dcdd65bba53",
                "system": "https://bluebutton.cms.gov/resources/codesystem/adjudication",
                "code": "https://bluebutton.cms.gov/resources/variables/line_sbmtd_chrg_amt",
                "display": "Line Submitted Charge Amount"
              }
            ]
          },
          "amount": {
            "value": 74.58,
            "currency": "USD"
          }
        },
        {
          "category": {
            "coding": [
              {
                "id": "28126ede-f7f8-5665-990c-c10ba934bc40",
                "system": "https://bluebutton.cms.gov/resources/codesystem/adjudication",
                "code": "https://bluebutton.cms.gov/resources/variables/line_alowd_chrg_amt",
                "display": "Line Allowed Charge Amount"
              }
            ]
          },
          "amount": {
            "value": 74.58,
            "currency": "USD"
          }
        },
        {
          "category": {
            "coding": [
              {
                "id": "b0971df9-d97f-5f01-8903-9cfd3330386e",
                "system": "https://bluebutton.cms.gov/resources/codesystem/adjudication",
                "code": "https://bluebutton.cms.gov/resources/variables/line_bene_ptb_ddctbl_amt",
                "display": "Line Beneficiary Part B Deductible Amount"
              }
            ]
          },
          "amount": {
            "value": 0,
            "currency": "USD"
          }
        },
        {
          "category": {
            "coding": [
              {
                "id": "8ef27c8a-80f3-5ec1-a673-c894f368a84b",
                "system": "https://bluebutton.cms.gov/resources/codesystem/adjudication",
                "code": "https://bluebutton.cms.gov/resources/variables/line_prcsg_ind_cd",
                "display": "Line Processing Indicator Code"
              }
            ]
          }
        }
      ]
    },
    {
      "sequence": 10,
      "category": {
        "coding": [
          {
            "id": "295af87c-7be2-5716-a727-d01c781be9a4",
            "system": "https://bluebutton.cms.gov/resources/variables/line_cms_type_srvc_cd",
            "code": "1",
            "display": "Medical care"
          }
        ]
      },
      "productOrService": {
        "coding": [
          {
            "id": "2817a305-3029-5e3a-878a-f0ec7a612259",
            "system": "http://snomed.info/sct",
            "code": "428211000124100",
            "display": "Assessment of substance use (procedure)"
          }
        ],
        "text": "Assessment of substance use (procedure)"
      },
      "servicedPeriod": {
        "start": "2021-11-13T20:58:10+00:00",
        "end": "2021-11-13T21:51:44+00:00"
      },
      "locationCodeableConcept": {
        "coding": [
          {
            "id": "74c37635-29ee-5dff-806c-81eae5af7d04",
            "system": "http://terminology.hl7.org/CodeSystem/ex-serviceplace",
            "code": "19",
            "display": "Off Campus-Outpatient Hospital"
          }
        ]
      },
      "net": {
        "value": 431.4,
        "currency": "USD"
      },
      "adjudication": [
        {
          "category": {
            "coding": [
              {
                "id": "e33f1fb9-52f8-5909-b4b3-ddd8cd5abfb6",
                "system": "https://bluebutton.cms.gov/resources/codesystem/adjudication",
                "code": "https://bluebutton.cms.gov/resources/variables/line_coinsrnc_amt",
                "display": "Line Beneficiary Coinsurance Amount"
              }
            ]
          },
          "amount": {
            "value": 86.28,
            "currency": "USD"
          }
        },
        {
          "category": {
            "coding": [
              {
                "id": "013c0dff-5302-5406-95cc-6c3a033aad23",
                "system": "https://bluebutton.cms.gov/resources/codesystem/adjudication",
                "code": "https://bluebutton.cms.gov/resources/variables/line_prvdr_pmt_amt",
                "display": "Line Provider Payment Amount"
              }
            ]
          },
          "amount": {
            "value": 345.12,
            "currency": "USD"
          }
        },
        {
          "category": {
            "coding": [
              {
                "id": "d7c793d6-cfa7-5320-bc80-8dcdd65bba53",
                "system": "https://bluebutton.cms.gov/resources/codesystem/adjudication",
                "code": "https://bluebutton.cms.gov/resources/variables/line_sbmtd_chrg_amt",
                "display": "Line Submitted Charge Amount"
              }
            ]
          },
          "amount": {
            "value": 431.4,
            "currency": "USD"
          }
        },
        {
          "category": {
            "coding": [
              {
                "id": "28126ede-f7f8-5665-990c-c10ba934bc40",
                "system": "https://bluebutton.cms.gov/resources/codesystem/adjudication",
                "code": "https://bluebutton.cms.gov/resources/variables/line_alowd_chrg_amt",
                "display": "Line Allowed Charge Amount"
              }
            ]
          },
          "amount": {
            "value": 431.4,
            "currency": "USD"
          }
        },
        {
          "category": {
            "coding": [
              {
                "id": "b0971df9-d97f-5f01-8903-9cfd3330386e",
                "system": "https://bluebutton.cms.gov/resources/codesystem/adjudication",
                "code": "https://bluebutton.cms.gov/resources/variables/line_bene_ptb_ddctbl_amt",
                "display": "Line Beneficiary Part B Deductible Amount"
              }
            ]
          },
          "amount": {
            "value": 0,
            "currency": "USD"
          }
        },
        {
          "category": {
            "coding": [
              {
                "id": "8ef27c8a-80f3-5ec1-a673-c894f368a84b",
                "system": "https://bluebutton.cms.gov/resources/codesystem/adjudication",
                "code": "https://bluebutton.cms.gov/resources/variables/line_prcsg_ind_cd",
                "display": "Line Processing Indicator Code"
              }
            ]
          }
        }
      ]
    },
    {
      "sequence": 11,
      "category": {
        "coding": [
          {
            "id": "295af87c-7be2-5716-a727-d01c781be9a4",
            "system": "https://bluebutton.cms.gov/resources/variables/line_cms_type_srvc_cd",
            "code": "1",
            "display": "Medical care"
          }
        ]
      },
      "productOrService": {
        "coding": [
          {
            "id": "3d296911-01d2-5347-927e-79c151fe9370",
            "system": "http://snomed.info/sct",
            "code": "713106006",
            "display": "Screening for drug abuse (procedure)"
          }
        ],
        "text": "Screening for drug abuse (procedure)"
      },
      "servicedPeriod": {
        "start": "2021-11-13T20:58:10+00:00",
        "end": "2021-11-13T21:51:44+00:00"
      },
      "locationCodeableConcept": {
        "coding": [
          {
            "id": "74c37635-29ee-5dff-806c-81eae5af7d04",
            "system": "http://terminology.hl7.org/CodeSystem/ex-serviceplace",
            "code": "19",
            "display": "Off Campus-Outpatient Hospital"
          }
        ]
      },
      "net": {
        "value": 431.4,
        "currency": "USD"
      },
      "adjudication": [
        {
          "category": {
            "coding": [
              {
                "id": "e33f1fb9-52f8-5909-b4b3-ddd8cd5abfb6",
                "system": "https://bluebutton.cms.gov/resources/codesystem/adjudication",
                "code": "https://bluebutton.cms.gov/resources/variables/line_coinsrnc_amt",
                "display": "Line Beneficiary Coinsurance Amount"
              }
            ]
          },
          "amount": {
            "value": 86.28,
            "currency": "USD"
          }
        },
        {
          "category": {
            "coding": [
              {
                "id": "013c0dff-5302-5406-95cc-6c3a033aad23",
                "system": "https://bluebutton.cms.gov/resources/codesystem/adjudication",
                "code": "https://bluebutton.cms.gov/resources/variables/line_prvdr_pmt_amt",
                "display": "Line Provider Payment Amount"
              }
            ]
          },
          "amount": {
            "value": 345.12,
            "currency": "USD"
          }
        },
        {
          "category": {
            "coding": [
              {
                "id": "d7c793d6-cfa7-5320-bc80-8dcdd65bba53",
                "system": "https://bluebutton.cms.gov/resources/codesystem/adjudication",
                "code": "https://bluebutton.cms.gov/resources/variables/line_sbmtd_chrg_amt",
                "display": "Line Submitted Charge Amount"
              }
            ]
          },
          "amount": {
            "value": 431.4,
            "currency": "USD"
          }
        },
        {
          "category": {
            "coding": [
              {
                "id": "28126ede-f7f8-5665-990c-c10ba934bc40",
                "system": "https://bluebutton.cms.gov/resources/codesystem/adjudication",
                "code": "https://bluebutton.cms.gov/resources/variables/line_alowd_chrg_amt",
                "display": "Line Allowed Charge Amount"
              }
            ]
          },
          "amount": {
            "value": 431.4,
            "currency": "USD"
          }
        },
        {
          "category": {
            "coding": [
              {
                "id": "b0971df9-d97f-5f01-8903-9cfd3330386e",
                "system": "https://bluebutton.cms.gov/resources/codesystem/adjudication",
                "code": "https://bluebutton.cms.gov/resources/variables/line_bene_ptb_ddctbl_amt",
                "display": "Line Beneficiary Part B Deductible Amount"
              }
            ]
          },
          "amount": {
            "value": 0,
            "currency": "USD"
          }
        },
        {
          "category": {
            "coding": [
              {
                "id": "8ef27c8a-80f3-5ec1-a673-c894f368a84b",
                "system": "https://bluebutton.cms.gov/resources/codesystem/adjudication",
                "code": "https://bluebutton.cms.gov/resources/variables/line_prcsg_ind_cd",
                "display": "Line Processing Indicator Code"
              }
            ]
          }
        }
      ]
    },
    {
      "sequence": 12,
      "informationSequence": [
        5
      ],
      "category": {
        "coding": [
          {
            "id": "295af87c-7be2-5716-a727-d01c781be9a4",
            "system": "https://bluebutton.cms.gov/resources/variables/line_cms_type_srvc_cd",
            "code": "1",
            "display": "Medical care"
          }
        ]
      },
      "productOrService": {
        "coding": [
          {
            "id": "d2761d55-3380-5b19-9d60-e429cc17255a",
            "system": "http://loinc.org",
            "code": "82666-9",
            "display": "Drug Abuse Screening Test-10 [DAST-10]"
          }
        ],
        "text": "Drug Abuse Screening Test-10 [DAST-10]"
      },
      "servicedPeriod": {
        "start": "2021-11-13T20:58:10+00:00",
        "end": "2021-11-13T21:51:44+00:00"
      },
      "locationCodeableConcept": {
        "coding": [
          {
            "id": "74c37635-29ee-5dff-806c-81eae5af7d04",
            "system": "http://terminology.hl7.org/CodeSystem/ex-serviceplace",
            "code": "19",
            "display": "Off Campus-Outpatient Hospital"
          }
        ]
      },
      "net": {
        "value": 74.58,
        "currency": "USD"
      },
      "adjudication": [
        {
          "category": {
            "coding": [
              {
                "id": "e33f1fb9-52f8-5909-b4b3-ddd8cd5abfb6",
                "system": "https://bluebutton.cms.gov/resources/codesystem/adjudication",
                "code": "https://bluebutton.cms.gov/resources/variables/line_coinsrnc_amt",
                "display": "Line Beneficiary Coinsurance Amount"
              }
            ]
          },
          "amount": {
            "value": 14.916,
            "currency": "USD"
          }
        },
        {
          "category": {
            "coding": [
              {
                "id": "013c0dff-5302-5406-95cc-6c3a033aad23",
                "system": "https://bluebutton.cms.gov/resources/codesystem/adjudication",
                "code": "https://bluebutton.cms.gov/resources/variables/line_prvdr_pmt_amt",
                "display": "Line Provider Payment Amount"
              }
            ]
          },
          "amount": {
            "value": 59.664,
            "currency": "USD"
          }
        },
        {
          "category": {
            "coding": [
              {
                "id": "d7c793d6-cfa7-5320-bc80-8dcdd65bba53",
                "system": "https://bluebutton.cms.gov/resources/codesystem/adjudication",
                "code": "https://bluebutton.cms.gov/resources/variables/line_sbmtd_chrg_amt",
                "display": "Line Submitted Charge Amount"
              }
            ]
          },
          "amount": {
            "value": 74.58,
            "currency": "USD"
          }
        },
        {
          "category": {
            "coding": [
              {
                "id": "28126ede-f7f8-5665-990c-c10ba934bc40",
                "system": "https://bluebutton.cms.gov/resources/codesystem/adjudication",
                "code": "https://bluebutton.cms.gov/resources/variables/line_alowd_chrg_amt",
                "display": "Line Allowed Charge Amount"
              }
            ]
          },
          "amount": {
            "value": 74.58,
            "currency": "USD"
          }
        },
        {
          "category": {
            "coding": [
              {
                "id": "b0971df9-d97f-5f01-8903-9cfd3330386e",
                "system": "https://bluebutton.cms.gov/resources/codesystem/adjudication",
                "code": "https://bluebutton.cms.gov/resources/variables/line_bene_ptb_ddctbl_amt",
                "display": "Line Beneficiary Part B Deductible Amount"
              }
            ]
          },
          "amount": {
            "value": 0,
            "currency": "USD"
          }
        },
        {
          "category": {
            "coding": [
              {
                "id": "8ef27c8a-80f3-5ec1-a673-c894f368a84b",
                "system": "https://bluebutton.cms.gov/resources/codesystem/adjudication",
                "code": "https://bluebutton.cms.gov/resources/variables/line_prcsg_ind_cd",
                "display": "Line Processing Indicator Code"
              }
            ]
          }
        }
      ]
    },
    {
      "sequence": 13,
      "category": {
        "coding": [
          {
            "id": "295af87c-7be2-5716-a727-d01c781be9a4",
            "system": "https://bluebutton.cms.gov/resources/variables/line_cms_type_srvc_cd",
            "code": "1",
            "display": "Medical care"
          }
        ]
      },
      "productOrService": {
        "coding": [
          {
            "id": "c04a53e4-88a1-552b-a9f6-642402534dea",
            "system": "http://snomed.info/sct",
            "code": "103697008",
            "display": "Patient referral for dental care (procedure)"
          }
        ],
        "text": "Patient referral for dental care (procedure)"
      },
      "servicedPeriod": {
        "start": "2021-11-13T20:58:10+00:00",
        "end": "2021-11-13T21:51:44+00:00"
      },
      "locationCodeableConcept": {
        "coding": [
          {
            "id": "74c37635-29ee-5dff-806c-81eae5af7d04",
            "system": "http://terminology.hl7.org/CodeSystem/ex-serviceplace",
            "code": "19",
            "display": "Off Campus-Outpatient Hospital"
          }
        ]
      },
      "net": {
        "value": 431.4,
        "currency": "USD"
      },
      "adjudication": [
        {
          "category": {
            "coding": [
              {
                "id": "e33f1fb9-52f8-5909-b4b3-ddd8cd5abfb6",
                "system": "https://bluebutton.cms.gov/resources/codesystem/adjudication",
                "code": "https://bluebutton.cms.gov/resources/variables/line_coinsrnc_amt",
                "display": "Line Beneficiary Coinsurance Amount"
              }
            ]
          },
          "amount": {
            "value": 86.28,
            "currency": "USD"
          }
        },
        {
          "category": {
            "coding": [
              {
                "id": "013c0dff-5302-5406-95cc-6c3a033aad23",
                "system": "https://bluebutton.cms.gov/resources/codesystem/adjudication",
                "code": "https://bluebutton.cms.gov/resources/variables/line_prvdr_pmt_amt",
                "display": "Line Provider Payment Amount"
              }
            ]
          },
          "amount": {
            "value": 345.12,
            "currency": "USD"
          }
        },
        {
          "category": {
            "coding": [
              {
                "id": "d7c793d6-cfa7-5320-bc80-8dcdd65bba53",
                "system": "https://bluebutton.cms.gov/resources/codesystem/adjudication",
                "code": "https://bluebutton.cms.gov/resources/variables/line_sbmtd_chrg_amt",
                "display": "Line Submitted Charge Amount"
              }
            ]
          },
          "amount": {
            "value": 431.4,
            "currency": "USD"
          }
        },
        {
          "category": {
            "coding": [
              {
                "id": "28126ede-f7f8-5665-990c-c10ba934bc40",
                "system": "https://bluebutton.cms.gov/resources/codesystem/adjudication",
                "code": "https://bluebutton.cms.gov/resources/variables/line_alowd_chrg_amt",
                "display": "Line Allowed Charge Amount"
              }
            ]
          },
          "amount": {
            "value": 431.4,
            "currency": "USD"
          }
        },
        {
          "category": {
            "coding": [
              {
                "id": "b0971df9-d97f-5f01-8903-9cfd3330386e",
                "system": "https://bluebutton.cms.gov/resources/codesystem/adjudication",
                "code": "https://bluebutton.cms.gov/resources/variables/line_bene_ptb_ddctbl_amt",
                "display": "Line Beneficiary Part B Deductible Amount"
              }
            ]
          },
          "amount": {
            "value": 0,
            "currency": "USD"
          }
        },
        {
          "category": {
            "coding": [
              {
                "id": "8ef27c8a-80f3-5ec1-a673-c894f368a84b",
                "system": "https://bluebutton.cms.gov/resources/codesystem/adjudication",
                "code": "https://bluebutton.cms.gov/resources/variables/line_prcsg_ind_cd",
                "display": "Line Processing Indicator Code"
              }
            ]
          }
        }
      ]
    }
  ],
  "meta": {
    "versionId": "1",
    "lastUpdated": "2025-10-29T03:40:31.960Z",
    "source": "synthea",
    "security": [
      {
        "id": "c90c2bc6-7d2d-564a-8b1f-4e7ea2e4674e",
        "system": "https://www.icanbwell.com/owner",
        "code": "synthea"
      },
      {
        "id": "be7572b0-aa9d-5c31-8875-ce6370a625ba",
        "system": "https://www.icanbwell.com/access",
        "code": "synthea"
      },
      {
        "id": "231ff57f-2dd1-5037-a3ba-0fa2d2c91939",
        "system": "https://www.icanbwell.com/vendor",
        "code": "synthea"
      },
      {
        "id": "2762e847-4e8f-508b-a05f-76c65f6503e9",
        "system": "https://www.icanbwell.com/sourceAssigningAuthority",
        "code": "synthea"
      }
    ],
    "tag": [
      {
        "system": "https://www.icanbwell.com/uuid",
        "code": "140dec0c-f4c5-1976-b8e0-700565da0305"
      }
    ]
  },
  "outcome": "complete",
  "patient": {
    "extension": [
      {
        "id": "sourceId",
        "url": "https://www.icanbwell.com/sourceId",
        "valueString": "Patient/ac59c2e9-d108-03bd-b501-c330d80054eb"
      },
      {
        "id": "uuid",
        "url": "https://www.icanbwell.com/uuid",
        "valueString": "Patient/ac59c2e9-d108-03bd-b501-c330d80054eb"
      },
      {
        "id": "sourceAssigningAuthority",
        "url": "https://www.icanbwell.com/sourceAssigningAuthority",
        "valueString": "synthea"
      }
    ],
    "reference": "Patient/ac59c2e9-d108-03bd-b501-c330d80054eb"
  },
  "payment": {
    "amount": {
      "value": 2531.072,
      "currency": "USD"
    }
  },
  "provider": {
    "extension": [
      {
        "id": "sourceId",
        "url": "https://www.icanbwell.com/sourceId",
        "valueString": "Practitioner/unknown"
      },
      {
        "id": "uuid",
        "url": "https://www.icanbwell.com/uuid",
        "valueString": "Practitioner/9d8ad331-8657-51af-92ca-8de68dc7512d"
      },
      {
        "id": "sourceAssigningAuthority",
        "url": "https://www.icanbwell.com/sourceAssigningAuthority",
        "valueString": "synthea"
      }
    ],
    "reference": "Practitioner/unknown"
  },
  "referral": {
    "extension": [
      {
        "id": "sourceId",
        "url": "https://www.icanbwell.com/sourceId",
        "valueString": "#referral"
      },
      {
        "id": "uuid",
        "url": "https://www.icanbwell.com/uuid",
        "valueString": "6954e121-00c1-5e7a-b3f0-f3e1f1c7833e"
      },
      {
        "id": "sourceAssigningAuthority",
        "url": "https://www.icanbwell.com/sourceAssigningAuthority",
        "valueString": "synthea"
      }
    ],
    "reference": "#referral"
  },
  "resourceType": "ExplanationOfBenefit",
  "status": "active",
  "total": [
    {
      "category": {
        "coding": [
          {
            "id": "e436baef-8c84-502b-951d-48ce56cb511a",
            "system": "http://terminology.hl7.org/CodeSystem/adjudication",
            "code": "submitted",
            "display": "Submitted Amount"
          }
        ],
        "text": "Submitted Amount"
      },
      "amount": {
        "value": 994.48,
        "currency": "USD"
      }
    }
  ],
  "type": {
    "coding": [
      {
        "id": "d44cf849-f473-56d4-94b1-6a4f41c05efc",
        "system": "http://terminology.hl7.org/CodeSystem/claim-type",
        "code": "professional"
      }
    ]
  },
  "use": "claim"
}