{
  "billablePeriod": {
    "start": "2019-06-27T22:39:36+00:00",
    "end": "2020-06-27T22:39:36+00:00"
  },
  "careTeam": [
    {
      "sequence": 1,
      "provider": {
        "extension": [
          {
            "id": "sourceId",
            "url": "https://www.icanbwell.com/sourceId",
            "valueString": "Practitioner/unknown"
          },
          {
            "id": "uuid",
            "url": "https://www.icanbwell.com/uuid",
            "valueString": "Practitioner/9d8ad331-8657-51af-92ca-8de68dc7512d"
          },
          {
            "id": "sourceAssigningAuthority",
            "url": "https://www.icanbwell.com/sourceAssigningAuthority",
            "valueString": "synthea"
          }
        ],
        "reference": "Practitioner/unknown"
      },
      "role": {
        "coding": [
          {
            "id": "552798d5-5f9a-5b74-a48c-e85209b21037",
            "system": "http://terminology.hl7.org/CodeSystem/claimcareteamrole",
            "code": "primary",
            "display": "Primary provider"
          }
        ]
      }
    }
  ],
  "claim": {
    "extension": [
      {
        "id": "sourceId",
        "url": "https://www.icanbwell.com/sourceId",
        "valueString": "Claim/ac59c2e9-d108-03bd-fa14-b59fe2ed705a"
      },
      {
        "id": "uuid",
        "url": "https://www.icanbwell.com/uuid",
        "valueString": "Claim/ac59c2e9-d108-03bd-fa14-b59fe2ed705a"
      },
      {
        "id": "sourceAssigningAuthority",
        "url": "https://www.icanbwell.com/sourceAssigningAuthority",
        "valueString": "synthea"
      }
    ],
    "reference": "Claim/ac59c2e9-d108-03bd-fa14-b59fe2ed705a"
  },
  "contained": [
    {
      "resourceType": "ServiceRequest",
      "id": "referral",
      "status": "completed",
      "intent": "order",
      "subject": {
        "extension": [
          {
            "id": "sourceId",
            "url": "https://www.icanbwell.com/sourceId",
            "valueString": "Patient/ac59c2e9-d108-03bd-b501-c330d80054eb"
          },
          {
            "id": "uuid",
            "url": "https://www.icanbwell.com/uuid",
            "valueString": "Patient/ac59c2e9-d108-03bd-b501-c330d80054eb"
          },
          {
            "id": "sourceAssigningAuthority",
            "url": "https://www.icanbwell.com/sourceAssigningAuthority",
            "valueString": "synthea"
          }
        ],
        "reference": "Patient/ac59c2e9-d108-03bd-b501-c330d80054eb"
      },
      "requester": {
        "extension": [
          {
            "id": "sourceId",
            "url": "https://www.icanbwell.com/sourceId",
            "valueString": "Practitioner/unknown"
          },
          {
            "id": "uuid",
            "url": "https://www.icanbwell.com/uuid",
            "valueString": "Practitioner/9d8ad331-8657-51af-92ca-8de68dc7512d"
          },
          {
            "id": "sourceAssigningAuthority",
            "url": "https://www.icanbwell.com/sourceAssigningAuthority",
            "valueString": "synthea"
          }
        ],
        "reference": "Practitioner/unknown"
      },
      "performer": [
        {
          "extension": [
            {
              "id": "sourceId",
              "url": "https://www.icanbwell.com/sourceId",
              "valueString": "Practitioner/unknown"
            },
            {
              "id": "uuid",
              "url": "https://www.icanbwell.com/uuid",
              "valueString": "Practitioner/9d8ad331-8657-51af-92ca-8de68dc7512d"
            },
            {
              "id": "sourceAssigningAuthority",
              "url": "https://www.icanbwell.com/sourceAssigningAuthority",
              "valueString": "synthea"
            }
          ],
          "reference": "Practitioner/unknown"
        }
      ]
    },
    {
      "resourceType": "Coverage",
      "id": "coverage",
      "status": "active",
      "type": {
        "text": "Humana"
      },
      "beneficiary": {
        "extension": [
          {
            "id": "sourceId",
            "url": "https://www.icanbwell.com/sourceId",
            "valueString": "Patient/ac59c2e9-d108-03bd-b501-c330d80054eb"
          },
          {
            "id": "uuid",
            "url": "https://www.icanbwell.com/uuid",
            "valueString": "Patient/ac59c2e9-d108-03bd-b501-c330d80054eb"
          },
          {
            "id": "sourceAssigningAuthority",
            "url": "https://www.icanbwell.com/sourceAssigningAuthority",
            "valueString": "synthea"
          }
        ],
        "reference": "Patient/ac59c2e9-d108-03bd-b501-c330d80054eb"
      },
      "payor": [
        {
          "display": "Humana"
        }
      ]
    }
  ],
  "created": "2019-06-27T22:39:36+00:00",
  "diagnosis": [
    {
      "sequence": 1,
      "diagnosisReference": {
        "extension": [
          {
            "id": "sourceId",
            "url": "https://www.icanbwell.com/sourceId",
            "valueString": "Condition/ac59c2e9-d108-03bd-2332-79e0b09683c6"
          },
          {
            "id": "uuid",
            "url": "https://www.icanbwell.com/uuid",
            "valueString": "Condition/ac59c2e9-d108-03bd-2332-79e0b09683c6"
          },
          {
            "id": "sourceAssigningAuthority",
            "url": "https://www.icanbwell.com/sourceAssigningAuthority",
            "valueString": "synthea"
          }
        ],
        "reference": "Condition/ac59c2e9-d108-03bd-2332-79e0b09683c6"
      },
      "type": [
        {
          "coding": [
            {
              "id": "3b2d6ce2-c139-569d-94ca-f4f10901e67e",
              "system": "http://terminology.hl7.org/CodeSystem/ex-diagnosistype",
              "code": "principal"
            }
          ]
        }
      ]
    },
    {
      "sequence": 2,
      "diagnosisReference": {
        "extension": [
          {
            "id": "sourceId",
            "url": "https://www.icanbwell.com/sourceId",
            "valueString": "Condition/ac59c2e9-d108-03bd-5c33-6cecf7e2d6a0"
          },
          {
            "id": "uuid",
            "url": "https://www.icanbwell.com/uuid",
            "valueString": "Condition/ac59c2e9-d108-03bd-5c33-6cecf7e2d6a0"
          },
          {
            "id": "sourceAssigningAuthority",
            "url": "https://www.icanbwell.com/sourceAssigningAuthority",
            "valueString": "synthea"
          }
        ],
        "reference": "Condition/ac59c2e9-d108-03bd-5c33-6cecf7e2d6a0"
      },
      "type": [
        {
          "coding": [
            {
              "id": "3b2d6ce2-c139-569d-94ca-f4f10901e67e",
              "system": "http://terminology.hl7.org/CodeSystem/ex-diagnosistype",
              "code": "principal"
            }
          ]
        }
      ]
    }
  ],
  "facility": {
    "extension": [
      {
        "id": "sourceId",
        "url": "https://www.icanbwell.com/sourceId",
        "valueString": "Location/unknown"
      },
      {
        "id": "uuid",
        "url": "https://www.icanbwell.com/uuid",
        "valueString": "Location/9d8ad331-8657-51af-92ca-8de68dc7512d"
      },
      {
        "id": "sourceAssigningAuthority",
        "url": "https://www.icanbwell.com/sourceAssigningAuthority",
        "valueString": "synthea"
      }
    ],
    "reference": "Location/unknown",
    "display": "ALLIANCE HEALTH AT MARIE ESTHER"
  },
  "id": "25ad7e12-94c7-ca31-a777-573b481b706f",
  "identifier": [
    {
      "system": "https://bluebutton.cms.gov/resources/variables/clm_id",
      "value": "ac59c2e9-d108-03bd-fa14-b59fe2ed705a"
    },
    {
      "system": "https://bluebutton.cms.gov/resources/identifier/claim-group",
      "value": "99999999999"
    },
    {
      "id": "sourceId",
      "system": "https://www.icanbwell.com/sourceId",
      "value": "25ad7e12-94c7-ca31-a777-573b481b706f"
    },
    {
      "id": "uuid",
      "system": "https://www.icanbwell.com/uuid",
      "value": "25ad7e12-94c7-ca31-a777-573b481b706f"
    }
  ],
  "insurance": [
    {
      "focal": true,
      "coverage": {
        "extension": [
          {
            "id": "sourceId",
            "url": "https://www.icanbwell.com/sourceId",
            "valueString": "#coverage"
          },
          {
            "id": "uuid",
            "url": "https://www.icanbwell.com/uuid",
            "valueString": "ac7798ae-c8b1-5de1-befe-852987d3adeb"
          },
          {
            "id": "sourceAssigningAuthority",
            "url": "https://www.icanbwell.com/sourceAssigningAuthority",
            "valueString": "synthea"
          }
        ],
        "reference": "#coverage",
        "display": "Humana"
      }
    }
  ],
  "insurer": {
    "display": "Humana"
  },
  "item": [
    {
      "sequence": 1,
      "category": {
        "coding": [
          {
            "id": "295af87c-7be2-5716-a727-d01c781be9a4",
            "system": "https://bluebutton.cms.gov/resources/variables/line_cms_type_srvc_cd",
            "code": "1",
            "display": "Medical care"
          }
        ]
      },
      "productOrService": {
        "coding": [
          {
            "id": "4f083054-13ed-5a3f-8e94-53151399fbbb",
            "system": "http://snomed.info/sct",
            "code": "50849002",
            "display": "Emergency room admission (procedure)"
          }
        ],
        "text": "Emergency room admission (procedure)"
      },
      "servicedPeriod": {
        "start": "2019-06-27T21:39:36+00:00",
        "end": "2019-06-27T22:39:36+00:00"
      },
      "locationCodeableConcept": {
        "coding": [
          {
            "id": "0069d7b1-4eb2-5cdd-9463-00e61be20e4f",
            "system": "http://terminology.hl7.org/CodeSystem/ex-serviceplace",
            "code": "20",
            "display": "Urgent Care Facility"
          }
        ]
      },
      "encounter": [
        {
          "extension": [
            {
              "id": "sourceId",
              "url": "https://www.icanbwell.com/sourceId",
              "valueString": "Encounter/ac59c2e9-d108-03bd-7789-f11bbf2837cd"
            },
            {
              "id": "uuid",
              "url": "https://www.icanbwell.com/uuid",
              "valueString": "Encounter/ac59c2e9-d108-03bd-7789-f11bbf2837cd"
            },
            {
              "id": "sourceAssigningAuthority",
              "url": "https://www.icanbwell.com/sourceAssigningAuthority",
              "valueString": "synthea"
            }
          ],
          "reference": "Encounter/ac59c2e9-d108-03bd-7789-f11bbf2837cd"
        }
      ]
    },
    {
      "sequence": 2,
      "diagnosisSequence": [
        1
      ],
      "category": {
        "coding": [
          {
            "id": "295af87c-7be2-5716-a727-d01c781be9a4",
            "system": "https://bluebutton.cms.gov/resources/variables/line_cms_type_srvc_cd",
            "code": "1",
            "display": "Medical care"
          }
        ]
      },
      "productOrService": {
        "coding": [
          {
            "id": "32c5ea25-33e9-56b3-aef3-19367ecb0c18",
            "system": "http://snomed.info/sct",
            "code": "384709000",
            "display": "Sprain (morphologic abnormality)"
          }
        ],
        "text": "Sprain (morphologic abnormality)"
      },
      "servicedPeriod": {
        "start": "2019-06-27T21:39:36+00:00",
        "end": "2019-06-27T22:39:36+00:00"
      },
      "locationCodeableConcept": {
        "coding": [
          {
            "id": "0069d7b1-4eb2-5cdd-9463-00e61be20e4f",
            "system": "http://terminology.hl7.org/CodeSystem/ex-serviceplace",
            "code": "20",
            "display": "Urgent Care Facility"
          }
        ]
      }
    },
    {
      "sequence": 3,
      "diagnosisSequence": [
        2
      ],
      "category": {
        "coding": [
          {
            "id": "295af87c-7be2-5716-a727-d01c781be9a4",
            "system": "https://bluebutton.cms.gov/resources/variables/line_cms_type_srvc_cd",
            "code": "1",
            "display": "Medical care"
          }
        ]
      },
      "productOrService": {
        "coding": [
          {
            "id": "6e426fde-aa0c-51d5-83b4-0cd02f5711be",
            "system": "http://snomed.info/sct",
            "code": "70704007",
            "display": "Sprain of wrist (disorder)"
          }
        ],
        "text": "Sprain of wrist (disorder)"
      },
      "servicedPeriod": {
        "start": "2019-06-27T21:39:36+00:00",
        "end": "2019-06-27T22:39:36+00:00"
      },
      "locationCodeableConcept": {
        "coding": [
          {
            "id": "0069d7b1-4eb2-5cdd-9463-00e61be20e4f",
            "system": "http://terminology.hl7.org/CodeSystem/ex-serviceplace",
            "code": "20",
            "display": "Urgent Care Facility"
          }
        ]
      }
    }
  ],
  "meta": {
    "versionId": "1",
    "lastUpdated": "2025-10-29T03:39:28.717Z",
    "source": "synthea",
    "security": [
      {
        "id": "c90c2bc6-7d2d-564a-8b1f-4e7ea2e4674e",
        "system": "https://www.icanbwell.com/owner",
        "code": "synthea"
      },
      {
        "id": "be7572b0-aa9d-5c31-8875-ce6370a625ba",
        "system": "https://www.icanbwell.com/access",
        "code": "synthea"
      },
      {
        "id": "231ff57f-2dd1-5037-a3ba-0fa2d2c91939",
        "system": "https://www.icanbwell.com/vendor",
        "code": "synthea"
      },
      {
        "id": "2762e847-4e8f-508b-a05f-76c65f6503e9",
        "system": "https://www.icanbwell.com/sourceAssigningAuthority",
        "code": "synthea"
      }
    ],
    "tag": [
      {
        "system": "https://www.icanbwell.com/uuid",
        "code": "25ad7e12-94c7-ca31-a777-573b481b706f"
      }
    ]
  },
  "outcome": "complete",
  "patient": {
    "extension": [
      {
        "id": "sourceId",
        "url": "https://www.icanbwell.com/sourceId",
        "valueString": "Patient/ac59c2e9-d108-03bd-b501-c330d80054eb"
      },
      {
        "id": "uuid",
        "url": "https://www.icanbwell.com/uuid",
        "valueString": "Patient/ac59c2e9-d108-03bd-b501-c330d80054eb"
      },
      {
        "id": "sourceAssigningAuthority",
        "url": "https://www.icanbwell.com/sourceAssigningAuthority",
        "valueString": "synthea"
      }
    ],
    "reference": "Patient/ac59c2e9-d108-03bd-b501-c330d80054eb"
  },
  "payment": {
    "amount": {
      "value": 0,
      "currency": "USD"
    }
  },
  "provider": {
    "extension": [
      {
        "id": "sourceId",
        "url": "https://www.icanbwell.com/sourceId",
        "valueString": "Practitioner/unknown"
      },
      {
        "id": "uuid",
        "url": "https://www.icanbwell.com/uuid",
        "valueString": "Practitioner/9d8ad331-8657-51af-92ca-8de68dc7512d"
      },
      {
        "id": "sourceAssigningAuthority",
        "url": "https://www.icanbwell.com/sourceAssigningAuthority",
        "valueString": "synthea"
      }
    ],
    "reference": "Practitioner/unknown"
  },
  "referral": {
    "extension": [
      {
        "id": "sourceId",
        "url": "https://www.icanbwell.com/sourceId",
        "valueString": "#referral"
      },
      {
        "id": "uuid",
        "url": "https://www.icanbwell.com/uuid",
        "valueString": "6954e121-00c1-5e7a-b3f0-f3e1f1c7833e"
      },
      {
        "id": "sourceAssigningAuthority",
        "url": "https://www.icanbwell.com/sourceAssigningAuthority",
        "valueString": "synthea"
      }
    ],
    "reference": "#referral"
  },
  "resourceType": "ExplanationOfBenefit",
  "status": "active",
  "total": [
    {
      "category": {
        "coding": [
          {
            "id": "e436baef-8c84-502b-951d-48ce56cb511a",
            "system": "http://terminology.hl7.org/CodeSystem/adjudication",
            "code": "submitted",
            "display": "Submitted Amount"
          }
        ],
        "text": "Submitted Amount"
      },
      "amount": {
        "value": 146.18,
        "currency": "USD"
      }
    }
  ],
  "type": {
    "coding": [
      {
        "id": "63666d30-7b8d-5674-97f4-bda270072f58",
        "system": "http://terminology.hl7.org/CodeSystem/claim-type",
        "code": "institutional"
      }
    ]
  },
  "use": "claim"
}