{
  "billablePeriod": {
    "start": "2025-02-22T19:13:10+00:00",
    "end": "2026-02-22T19:13:10+00:00"
  },
  "careTeam": [
    {
      "sequence": 1,
      "provider": {
        "extension": [
          {
            "id": "sourceId",
            "url": "https://www.icanbwell.com/sourceId",
            "valueString": "Practitioner/unknown"
          },
          {
            "id": "uuid",
            "url": "https://www.icanbwell.com/uuid",
            "valueString": "Practitioner/9d8ad331-8657-51af-92ca-8de68dc7512d"
          },
          {
            "id": "sourceAssigningAuthority",
            "url": "https://www.icanbwell.com/sourceAssigningAuthority",
            "valueString": "synthea"
          }
        ],
        "reference": "Practitioner/unknown"
      },
      "role": {
        "coding": [
          {
            "id": "552798d5-5f9a-5b74-a48c-e85209b21037",
            "system": "http://terminology.hl7.org/CodeSystem/claimcareteamrole",
            "code": "primary",
            "display": "Primary provider"
          }
        ]
      }
    }
  ],
  "claim": {
    "extension": [
      {
        "id": "sourceId",
        "url": "https://www.icanbwell.com/sourceId",
        "valueString": "Claim/ac59c2e9-d108-03bd-15aa-765e01631a2e"
      },
      {
        "id": "uuid",
        "url": "https://www.icanbwell.com/uuid",
        "valueString": "Claim/ac59c2e9-d108-03bd-15aa-765e01631a2e"
      },
      {
        "id": "sourceAssigningAuthority",
        "url": "https://www.icanbwell.com/sourceAssigningAuthority",
        "valueString": "synthea"
      }
    ],
    "reference": "Claim/ac59c2e9-d108-03bd-15aa-765e01631a2e"
  },
  "contained": [
    {
      "resourceType": "ServiceRequest",
      "id": "referral",
      "status": "completed",
      "intent": "order",
      "subject": {
        "extension": [
          {
            "id": "sourceId",
            "url": "https://www.icanbwell.com/sourceId",
            "valueString": "Patient/ac59c2e9-d108-03bd-b501-c330d80054eb"
          },
          {
            "id": "uuid",
            "url": "https://www.icanbwell.com/uuid",
            "valueString": "Patient/ac59c2e9-d108-03bd-b501-c330d80054eb"
          },
          {
            "id": "sourceAssigningAuthority",
            "url": "https://www.icanbwell.com/sourceAssigningAuthority",
            "valueString": "synthea"
          }
        ],
        "reference": "Patient/ac59c2e9-d108-03bd-b501-c330d80054eb"
      },
      "requester": {
        "extension": [
          {
            "id": "sourceId",
            "url": "https://www.icanbwell.com/sourceId",
            "valueString": "Practitioner/unknown"
          },
          {
            "id": "uuid",
            "url": "https://www.icanbwell.com/uuid",
            "valueString": "Practitioner/9d8ad331-8657-51af-92ca-8de68dc7512d"
          },
          {
            "id": "sourceAssigningAuthority",
            "url": "https://www.icanbwell.com/sourceAssigningAuthority",
            "valueString": "synthea"
          }
        ],
        "reference": "Practitioner/unknown"
      },
      "performer": [
        {
          "extension": [
            {
              "id": "sourceId",
              "url": "https://www.icanbwell.com/sourceId",
              "valueString": "Practitioner/unknown"
            },
            {
              "id": "uuid",
              "url": "https://www.icanbwell.com/uuid",
              "valueString": "Practitioner/9d8ad331-8657-51af-92ca-8de68dc7512d"
            },
            {
              "id": "sourceAssigningAuthority",
              "url": "https://www.icanbwell.com/sourceAssigningAuthority",
              "valueString": "synthea"
            }
          ],
          "reference": "Practitioner/unknown"
        }
      ]
    },
    {
      "resourceType": "Coverage",
      "id": "coverage",
      "status": "active",
      "type": {
        "text": "Humana"
      },
      "beneficiary": {
        "extension": [
          {
            "id": "sourceId",
            "url": "https://www.icanbwell.com/sourceId",
            "valueString": "Patient/ac59c2e9-d108-03bd-b501-c330d80054eb"
          },
          {
            "id": "uuid",
            "url": "https://www.icanbwell.com/uuid",
            "valueString": "Patient/ac59c2e9-d108-03bd-b501-c330d80054eb"
          },
          {
            "id": "sourceAssigningAuthority",
            "url": "https://www.icanbwell.com/sourceAssigningAuthority",
            "valueString": "synthea"
          }
        ],
        "reference": "Patient/ac59c2e9-d108-03bd-b501-c330d80054eb"
      },
      "payor": [
        {
          "display": "Humana"
        }
      ]
    }
  ],
  "created": "2025-02-22T19:13:10+00:00",
  "diagnosis": [
    {
      "sequence": 1,
      "diagnosisReference": {
        "extension": [
          {
            "id": "sourceId",
            "url": "https://www.icanbwell.com/sourceId",
            "valueString": "Condition/ac59c2e9-d108-03bd-75ea-1fb354f634aa"
          },
          {
            "id": "uuid",
            "url": "https://www.icanbwell.com/uuid",
            "valueString": "Condition/ac59c2e9-d108-03bd-75ea-1fb354f634aa"
          },
          {
            "id": "sourceAssigningAuthority",
            "url": "https://www.icanbwell.com/sourceAssigningAuthority",
            "valueString": "synthea"
          }
        ],
        "reference": "Condition/ac59c2e9-d108-03bd-75ea-1fb354f634aa"
      },
      "type": [
        {
          "coding": [
            {
              "id": "3b2d6ce2-c139-569d-94ca-f4f10901e67e",
              "system": "http://terminology.hl7.org/CodeSystem/ex-diagnosistype",
              "code": "principal"
            }
          ]
        }
      ]
    }
  ],
  "facility": {
    "extension": [
      {
        "id": "sourceId",
        "url": "https://www.icanbwell.com/sourceId",
        "valueString": "Location/unknown"
      },
      {
        "id": "uuid",
        "url": "https://www.icanbwell.com/uuid",
        "valueString": "Location/9d8ad331-8657-51af-92ca-8de68dc7512d"
      },
      {
        "id": "sourceAssigningAuthority",
        "url": "https://www.icanbwell.com/sourceAssigningAuthority",
        "valueString": "synthea"
      }
    ],
    "reference": "Location/unknown",
    "display": "MARLBOROUGH HOSPITAL CORP"
  },
  "id": "983b3b30-851a-6fab-1591-f72ce6a316f8",
  "identifier": [
    {
      "system": "https://bluebutton.cms.gov/resources/variables/clm_id",
      "value": "ac59c2e9-d108-03bd-15aa-765e01631a2e"
    },
    {
      "system": "https://bluebutton.cms.gov/resources/identifier/claim-group",
      "value": "99999999999"
    },
    {
      "id": "sourceId",
      "system": "https://www.icanbwell.com/sourceId",
      "value": "983b3b30-851a-6fab-1591-f72ce6a316f8"
    },
    {
      "id": "uuid",
      "system": "https://www.icanbwell.com/uuid",
      "value": "983b3b30-851a-6fab-1591-f72ce6a316f8"
    }
  ],
  "insurance": [
    {
      "focal": true,
      "coverage": {
        "extension": [
          {
            "id": "sourceId",
            "url": "https://www.icanbwell.com/sourceId",
            "valueString": "#coverage"
          },
          {
            "id": "uuid",
            "url": "https://www.icanbwell.com/uuid",
            "valueString": "ac7798ae-c8b1-5de1-befe-852987d3adeb"
          },
          {
            "id": "sourceAssigningAuthority",
            "url": "https://www.icanbwell.com/sourceAssigningAuthority",
            "valueString": "synthea"
          }
        ],
        "reference": "#coverage",
        "display": "Humana"
      }
    }
  ],
  "insurer": {
    "display": "Humana"
  },
  "item": [
    {
      "sequence": 1,
      "category": {
        "coding": [
          {
            "id": "295af87c-7be2-5716-a727-d01c781be9a4",
            "system": "https://bluebutton.cms.gov/resources/variables/line_cms_type_srvc_cd",
            "code": "1",
            "display": "Medical care"
          }
        ]
      },
      "productOrService": {
        "coding": [
          {
            "id": "464063f9-1764-532a-8509-ce9f218c9ec3",
            "system": "http://snomed.info/sct",
            "code": "185345009",
            "display": "Encounter for symptom (procedure)"
          }
        ],
        "text": "Encounter for symptom (procedure)"
      },
      "servicedPeriod": {
        "start": "2025-02-22T18:58:10+00:00",
        "end": "2025-02-22T19:13:10+00:00"
      },
      "locationCodeableConcept": {
        "coding": [
          {
            "id": "d49c4a46-8fec-5672-af5f-4cce13267d8e",
            "system": "http://terminology.hl7.org/CodeSystem/ex-serviceplace",
            "code": "21",
            "display": "Inpatient Hospital"
          }
        ]
      },
      "encounter": [
        {
          "extension": [
            {
              "id": "sourceId",
              "url": "https://www.icanbwell.com/sourceId",
              "valueString": "Encounter/ac59c2e9-d108-03bd-24bb-51f8d9e27689"
            },
            {
              "id": "uuid",
              "url": "https://www.icanbwell.com/uuid",
              "valueString": "Encounter/ac59c2e9-d108-03bd-24bb-51f8d9e27689"
            },
            {
              "id": "sourceAssigningAuthority",
              "url": "https://www.icanbwell.com/sourceAssigningAuthority",
              "valueString": "synthea"
            }
          ],
          "reference": "Encounter/ac59c2e9-d108-03bd-24bb-51f8d9e27689"
        }
      ]
    },
    {
      "sequence": 2,
      "diagnosisSequence": [
        1
      ],
      "category": {
        "coding": [
          {
            "id": "295af87c-7be2-5716-a727-d01c781be9a4",
            "system": "https://bluebutton.cms.gov/resources/variables/line_cms_type_srvc_cd",
            "code": "1",
            "display": "Medical care"
          }
        ]
      },
      "productOrService": {
        "coding": [
          {
            "id": "4df1613a-1f5b-5c1b-88e1-5ad56c6af9a3",
            "system": "http://snomed.info/sct",
            "code": "195662009",
            "display": "Acute viral pharyngitis (disorder)"
          }
        ],
        "text": "Acute viral pharyngitis (disorder)"
      },
      "servicedPeriod": {
        "start": "2025-02-22T18:58:10+00:00",
        "end": "2025-02-22T19:13:10+00:00"
      },
      "locationCodeableConcept": {
        "coding": [
          {
            "id": "d49c4a46-8fec-5672-af5f-4cce13267d8e",
            "system": "http://terminology.hl7.org/CodeSystem/ex-serviceplace",
            "code": "21",
            "display": "Inpatient Hospital"
          }
        ]
      }
    }
  ],
  "meta": {
    "versionId": "1",
    "lastUpdated": "2025-10-29T03:41:45.367Z",
    "source": "synthea",
    "security": [
      {
        "id": "c90c2bc6-7d2d-564a-8b1f-4e7ea2e4674e",
        "system": "https://www.icanbwell.com/owner",
        "code": "synthea"
      },
      {
        "id": "be7572b0-aa9d-5c31-8875-ce6370a625ba",
        "system": "https://www.icanbwell.com/access",
        "code": "synthea"
      },
      {
        "id": "231ff57f-2dd1-5037-a3ba-0fa2d2c91939",
        "system": "https://www.icanbwell.com/vendor",
        "code": "synthea"
      },
      {
        "id": "2762e847-4e8f-508b-a05f-76c65f6503e9",
        "system": "https://www.icanbwell.com/sourceAssigningAuthority",
        "code": "synthea"
      }
    ],
    "tag": [
      {
        "system": "https://www.icanbwell.com/uuid",
        "code": "983b3b30-851a-6fab-1591-f72ce6a316f8"
      }
    ]
  },
  "outcome": "complete",
  "patient": {
    "extension": [
      {
        "id": "sourceId",
        "url": "https://www.icanbwell.com/sourceId",
        "valueString": "Patient/ac59c2e9-d108-03bd-b501-c330d80054eb"
      },
      {
        "id": "uuid",
        "url": "https://www.icanbwell.com/uuid",
        "valueString": "Patient/ac59c2e9-d108-03bd-b501-c330d80054eb"
      },
      {
        "id": "sourceAssigningAuthority",
        "url": "https://www.icanbwell.com/sourceAssigningAuthority",
        "valueString": "synthea"
      }
    ],
    "reference": "Patient/ac59c2e9-d108-03bd-b501-c330d80054eb"
  },
  "payment": {
    "amount": {
      "value": 0,
      "currency": "USD"
    }
  },
  "provider": {
    "extension": [
      {
        "id": "sourceId",
        "url": "https://www.icanbwell.com/sourceId",
        "valueString": "Practitioner/unknown"
      },
      {
        "id": "uuid",
        "url": "https://www.icanbwell.com/uuid",
        "valueString": "Practitioner/9d8ad331-8657-51af-92ca-8de68dc7512d"
      },
      {
        "id": "sourceAssigningAuthority",
        "url": "https://www.icanbwell.com/sourceAssigningAuthority",
        "valueString": "synthea"
      }
    ],
    "reference": "Practitioner/unknown"
  },
  "referral": {
    "extension": [
      {
        "id": "sourceId",
        "url": "https://www.icanbwell.com/sourceId",
        "valueString": "#referral"
      },
      {
        "id": "uuid",
        "url": "https://www.icanbwell.com/uuid",
        "valueString": "6954e121-00c1-5e7a-b3f0-f3e1f1c7833e"
      },
      {
        "id": "sourceAssigningAuthority",
        "url": "https://www.icanbwell.com/sourceAssigningAuthority",
        "valueString": "synthea"
      }
    ],
    "reference": "#referral"
  },
  "resourceType": "ExplanationOfBenefit",
  "status": "active",
  "total": [
    {
      "category": {
        "coding": [
          {
            "id": "e436baef-8c84-502b-951d-48ce56cb511a",
            "system": "http://terminology.hl7.org/CodeSystem/adjudication",
            "code": "submitted",
            "display": "Submitted Amount"
          }
        ],
        "text": "Submitted Amount"
      },
      "amount": {
        "value": 85.55,
        "currency": "USD"
      }
    }
  ],
  "type": {
    "coding": [
      {
        "id": "d44cf849-f473-56d4-94b1-6a4f41c05efc",
        "system": "http://terminology.hl7.org/CodeSystem/claim-type",
        "code": "professional"
      }
    ]
  },
  "use": "claim"
}