{
  "billablePeriod": {
    "start": "2019-11-17T02:30:31+00:00",
    "end": "2020-11-17T02:30:31+00:00"
  },
  "careTeam": [
    {
      "sequence": 1,
      "provider": {
        "extension": [
          {
            "id": "sourceId",
            "url": "https://www.icanbwell.com/sourceId",
            "valueString": "Practitioner/unknown"
          },
          {
            "id": "uuid",
            "url": "https://www.icanbwell.com/uuid",
            "valueString": "Practitioner/9d8ad331-8657-51af-92ca-8de68dc7512d"
          },
          {
            "id": "sourceAssigningAuthority",
            "url": "https://www.icanbwell.com/sourceAssigningAuthority",
            "valueString": "synthea"
          }
        ],
        "reference": "Practitioner/unknown"
      },
      "role": {
        "coding": [
          {
            "id": "552798d5-5f9a-5b74-a48c-e85209b21037",
            "system": "http://terminology.hl7.org/CodeSystem/claimcareteamrole",
            "code": "primary",
            "display": "Primary provider"
          }
        ]
      }
    }
  ],
  "claim": {
    "extension": [
      {
        "id": "sourceId",
        "url": "https://www.icanbwell.com/sourceId",
        "valueString": "Claim/ac59c2e9-d108-03bd-a13a-b710fe280550"
      },
      {
        "id": "uuid",
        "url": "https://www.icanbwell.com/uuid",
        "valueString": "Claim/ac59c2e9-d108-03bd-a13a-b710fe280550"
      },
      {
        "id": "sourceAssigningAuthority",
        "url": "https://www.icanbwell.com/sourceAssigningAuthority",
        "valueString": "synthea"
      }
    ],
    "reference": "Claim/ac59c2e9-d108-03bd-a13a-b710fe280550"
  },
  "contained": [
    {
      "resourceType": "ServiceRequest",
      "id": "referral",
      "status": "completed",
      "intent": "order",
      "subject": {
        "extension": [
          {
            "id": "sourceId",
            "url": "https://www.icanbwell.com/sourceId",
            "valueString": "Patient/ac59c2e9-d108-03bd-b501-c330d80054eb"
          },
          {
            "id": "uuid",
            "url": "https://www.icanbwell.com/uuid",
            "valueString": "Patient/ac59c2e9-d108-03bd-b501-c330d80054eb"
          },
          {
            "id": "sourceAssigningAuthority",
            "url": "https://www.icanbwell.com/sourceAssigningAuthority",
            "valueString": "synthea"
          }
        ],
        "reference": "Patient/ac59c2e9-d108-03bd-b501-c330d80054eb"
      },
      "requester": {
        "extension": [
          {
            "id": "sourceId",
            "url": "https://www.icanbwell.com/sourceId",
            "valueString": "Practitioner/unknown"
          },
          {
            "id": "uuid",
            "url": "https://www.icanbwell.com/uuid",
            "valueString": "Practitioner/9d8ad331-8657-51af-92ca-8de68dc7512d"
          },
          {
            "id": "sourceAssigningAuthority",
            "url": "https://www.icanbwell.com/sourceAssigningAuthority",
            "valueString": "synthea"
          }
        ],
        "reference": "Practitioner/unknown"
      },
      "performer": [
        {
          "extension": [
            {
              "id": "sourceId",
              "url": "https://www.icanbwell.com/sourceId",
              "valueString": "Practitioner/unknown"
            },
            {
              "id": "uuid",
              "url": "https://www.icanbwell.com/uuid",
              "valueString": "Practitioner/9d8ad331-8657-51af-92ca-8de68dc7512d"
            },
            {
              "id": "sourceAssigningAuthority",
              "url": "https://www.icanbwell.com/sourceAssigningAuthority",
              "valueString": "synthea"
            }
          ],
          "reference": "Practitioner/unknown"
        }
      ]
    },
    {
      "resourceType": "Coverage",
      "id": "coverage",
      "status": "active",
      "type": {
        "text": "Humana"
      },
      "beneficiary": {
        "extension": [
          {
            "id": "sourceId",
            "url": "https://www.icanbwell.com/sourceId",
            "valueString": "Patient/ac59c2e9-d108-03bd-b501-c330d80054eb"
          },
          {
            "id": "uuid",
            "url": "https://www.icanbwell.com/uuid",
            "valueString": "Patient/ac59c2e9-d108-03bd-b501-c330d80054eb"
          },
          {
            "id": "sourceAssigningAuthority",
            "url": "https://www.icanbwell.com/sourceAssigningAuthority",
            "valueString": "synthea"
          }
        ],
        "reference": "Patient/ac59c2e9-d108-03bd-b501-c330d80054eb"
      },
      "payor": [
        {
          "display": "Humana"
        }
      ]
    }
  ],
  "created": "2019-11-17T02:30:31+00:00",
  "diagnosis": [
    {
      "sequence": 1,
      "diagnosisReference": {
        "extension": [
          {
            "id": "sourceId",
            "url": "https://www.icanbwell.com/sourceId",
            "valueString": "Condition/ac59c2e9-d108-03bd-f3bd-26ece8997fcb"
          },
          {
            "id": "uuid",
            "url": "https://www.icanbwell.com/uuid",
            "valueString": "Condition/ac59c2e9-d108-03bd-f3bd-26ece8997fcb"
          },
          {
            "id": "sourceAssigningAuthority",
            "url": "https://www.icanbwell.com/sourceAssigningAuthority",
            "valueString": "synthea"
          }
        ],
        "reference": "Condition/ac59c2e9-d108-03bd-f3bd-26ece8997fcb"
      },
      "type": [
        {
          "coding": [
            {
              "id": "3b2d6ce2-c139-569d-94ca-f4f10901e67e",
              "system": "http://terminology.hl7.org/CodeSystem/ex-diagnosistype",
              "code": "principal"
            }
          ]
        }
      ]
    }
  ],
  "facility": {
    "extension": [
      {
        "id": "sourceId",
        "url": "https://www.icanbwell.com/sourceId",
        "valueString": "Location/unknown"
      },
      {
        "id": "uuid",
        "url": "https://www.icanbwell.com/uuid",
        "valueString": "Location/9d8ad331-8657-51af-92ca-8de68dc7512d"
      },
      {
        "id": "sourceAssigningAuthority",
        "url": "https://www.icanbwell.com/sourceAssigningAuthority",
        "valueString": "synthea"
      }
    ],
    "reference": "Location/unknown",
    "display": "MARLBOROUGH HOSPITAL CORP"
  },
  "id": "b01b6e66-0fdd-877d-03c1-aceab4d7c941",
  "identifier": [
    {
      "system": "https://bluebutton.cms.gov/resources/variables/clm_id",
      "value": "ac59c2e9-d108-03bd-a13a-b710fe280550"
    },
    {
      "system": "https://bluebutton.cms.gov/resources/identifier/claim-group",
      "value": "99999999999"
    },
    {
      "id": "sourceId",
      "system": "https://www.icanbwell.com/sourceId",
      "value": "b01b6e66-0fdd-877d-03c1-aceab4d7c941"
    },
    {
      "id": "uuid",
      "system": "https://www.icanbwell.com/uuid",
      "value": "b01b6e66-0fdd-877d-03c1-aceab4d7c941"
    }
  ],
  "insurance": [
    {
      "focal": true,
      "coverage": {
        "extension": [
          {
            "id": "sourceId",
            "url": "https://www.icanbwell.com/sourceId",
            "valueString": "#coverage"
          },
          {
            "id": "uuid",
            "url": "https://www.icanbwell.com/uuid",
            "valueString": "ac7798ae-c8b1-5de1-befe-852987d3adeb"
          },
          {
            "id": "sourceAssigningAuthority",
            "url": "https://www.icanbwell.com/sourceAssigningAuthority",
            "valueString": "synthea"
          }
        ],
        "reference": "#coverage",
        "display": "Humana"
      }
    }
  ],
  "insurer": {
    "display": "Humana"
  },
  "item": [
    {
      "sequence": 1,
      "category": {
        "coding": [
          {
            "id": "295af87c-7be2-5716-a727-d01c781be9a4",
            "system": "https://bluebutton.cms.gov/resources/variables/line_cms_type_srvc_cd",
            "code": "1",
            "display": "Medical care"
          }
        ]
      },
      "productOrService": {
        "coding": [
          {
            "id": "7cd1df1f-b82a-5e27-82bb-cd6df77190f4",
            "system": "http://snomed.info/sct",
            "code": "185349003",
            "display": "Encounter for check up (procedure)"
          }
        ],
        "text": "Encounter for check up (procedure)"
      },
      "servicedPeriod": {
        "start": "2019-11-16T20:58:10+00:00",
        "end": "2019-11-17T02:30:31+00:00"
      },
      "locationCodeableConcept": {
        "coding": [
          {
            "id": "d49c4a46-8fec-5672-af5f-4cce13267d8e",
            "system": "http://terminology.hl7.org/CodeSystem/ex-serviceplace",
            "code": "21",
            "display": "Inpatient Hospital"
          }
        ]
      },
      "encounter": [
        {
          "extension": [
            {
              "id": "sourceId",
              "url": "https://www.icanbwell.com/sourceId",
              "valueString": "Encounter/ac59c2e9-d108-03bd-7400-155f453d3595"
            },
            {
              "id": "uuid",
              "url": "https://www.icanbwell.com/uuid",
              "valueString": "Encounter/ac59c2e9-d108-03bd-7400-155f453d3595"
            },
            {
              "id": "sourceAssigningAuthority",
              "url": "https://www.icanbwell.com/sourceAssigningAuthority",
              "valueString": "synthea"
            }
          ],
          "reference": "Encounter/ac59c2e9-d108-03bd-7400-155f453d3595"
        }
      ]
    },
    {
      "sequence": 2,
      "category": {
        "coding": [
          {
            "id": "295af87c-7be2-5716-a727-d01c781be9a4",
            "system": "https://bluebutton.cms.gov/resources/variables/line_cms_type_srvc_cd",
            "code": "1",
            "display": "Medical care"
          }
        ]
      },
      "productOrService": {
        "coding": [
          {
            "id": "84900c69-f881-5583-8df5-6c5cdc883308",
            "system": "http://snomed.info/sct",
            "code": "34043003",
            "display": "Dental consultation and report (procedure)"
          }
        ],
        "text": "Dental consultation and report (procedure)"
      },
      "servicedPeriod": {
        "start": "2019-11-16T20:58:10+00:00",
        "end": "2019-11-17T02:30:31+00:00"
      },
      "locationCodeableConcept": {
        "coding": [
          {
            "id": "d49c4a46-8fec-5672-af5f-4cce13267d8e",
            "system": "http://terminology.hl7.org/CodeSystem/ex-serviceplace",
            "code": "21",
            "display": "Inpatient Hospital"
          }
        ]
      },
      "net": {
        "value": 431.4,
        "currency": "USD"
      },
      "adjudication": [
        {
          "category": {
            "coding": [
              {
                "id": "e33f1fb9-52f8-5909-b4b3-ddd8cd5abfb6",
                "system": "https://bluebutton.cms.gov/resources/codesystem/adjudication",
                "code": "https://bluebutton.cms.gov/resources/variables/line_coinsrnc_amt",
                "display": "Line Beneficiary Coinsurance Amount"
              }
            ]
          },
          "amount": {
            "value": 86.28,
            "currency": "USD"
          }
        },
        {
          "category": {
            "coding": [
              {
                "id": "013c0dff-5302-5406-95cc-6c3a033aad23",
                "system": "https://bluebutton.cms.gov/resources/codesystem/adjudication",
                "code": "https://bluebutton.cms.gov/resources/variables/line_prvdr_pmt_amt",
                "display": "Line Provider Payment Amount"
              }
            ]
          },
          "amount": {
            "value": 345.12,
            "currency": "USD"
          }
        },
        {
          "category": {
            "coding": [
              {
                "id": "d7c793d6-cfa7-5320-bc80-8dcdd65bba53",
                "system": "https://bluebutton.cms.gov/resources/codesystem/adjudication",
                "code": "https://bluebutton.cms.gov/resources/variables/line_sbmtd_chrg_amt",
                "display": "Line Submitted Charge Amount"
              }
            ]
          },
          "amount": {
            "value": 431.4,
            "currency": "USD"
          }
        },
        {
          "category": {
            "coding": [
              {
                "id": "28126ede-f7f8-5665-990c-c10ba934bc40",
                "system": "https://bluebutton.cms.gov/resources/codesystem/adjudication",
                "code": "https://bluebutton.cms.gov/resources/variables/line_alowd_chrg_amt",
                "display": "Line Allowed Charge Amount"
              }
            ]
          },
          "amount": {
            "value": 431.4,
            "currency": "USD"
          }
        },
        {
          "category": {
            "coding": [
              {
                "id": "b0971df9-d97f-5f01-8903-9cfd3330386e",
                "system": "https://bluebutton.cms.gov/resources/codesystem/adjudication",
                "code": "https://bluebutton.cms.gov/resources/variables/line_bene_ptb_ddctbl_amt",
                "display": "Line Beneficiary Part B Deductible Amount"
              }
            ]
          },
          "amount": {
            "value": 0,
            "currency": "USD"
          }
        },
        {
          "category": {
            "coding": [
              {
                "id": "8ef27c8a-80f3-5ec1-a673-c894f368a84b",
                "system": "https://bluebutton.cms.gov/resources/codesystem/adjudication",
                "code": "https://bluebutton.cms.gov/resources/variables/line_prcsg_ind_cd",
                "display": "Line Processing Indicator Code"
              }
            ]
          }
        }
      ]
    },
    {
      "sequence": 3,
      "category": {
        "coding": [
          {
            "id": "295af87c-7be2-5716-a727-d01c781be9a4",
            "system": "https://bluebutton.cms.gov/resources/variables/line_cms_type_srvc_cd",
            "code": "1",
            "display": "Medical care"
          }
        ]
      },
      "productOrService": {
        "coding": [
          {
            "id": "0e40de2a-1e5e-5346-8af5-70757ad34be4",
            "system": "http://snomed.info/sct",
            "code": "225362009",
            "display": "Dental care (regime/therapy)"
          }
        ],
        "text": "Dental care (regime/therapy)"
      },
      "servicedPeriod": {
        "start": "2019-11-16T20:58:10+00:00",
        "end": "2019-11-17T02:30:31+00:00"
      },
      "locationCodeableConcept": {
        "coding": [
          {
            "id": "d49c4a46-8fec-5672-af5f-4cce13267d8e",
            "system": "http://terminology.hl7.org/CodeSystem/ex-serviceplace",
            "code": "21",
            "display": "Inpatient Hospital"
          }
        ]
      },
      "net": {
        "value": 431.4,
        "currency": "USD"
      },
      "adjudication": [
        {
          "category": {
            "coding": [
              {
                "id": "e33f1fb9-52f8-5909-b4b3-ddd8cd5abfb6",
                "system": "https://bluebutton.cms.gov/resources/codesystem/adjudication",
                "code": "https://bluebutton.cms.gov/resources/variables/line_coinsrnc_amt",
                "display": "Line Beneficiary Coinsurance Amount"
              }
            ]
          },
          "amount": {
            "value": 86.28,
            "currency": "USD"
          }
        },
        {
          "category": {
            "coding": [
              {
                "id": "013c0dff-5302-5406-95cc-6c3a033aad23",
                "system": "https://bluebutton.cms.gov/resources/codesystem/adjudication",
                "code": "https://bluebutton.cms.gov/resources/variables/line_prvdr_pmt_amt",
                "display": "Line Provider Payment Amount"
              }
            ]
          },
          "amount": {
            "value": 345.12,
            "currency": "USD"
          }
        },
        {
          "category": {
            "coding": [
              {
                "id": "d7c793d6-cfa7-5320-bc80-8dcdd65bba53",
                "system": "https://bluebutton.cms.gov/resources/codesystem/adjudication",
                "code": "https://bluebutton.cms.gov/resources/variables/line_sbmtd_chrg_amt",
                "display": "Line Submitted Charge Amount"
              }
            ]
          },
          "amount": {
            "value": 431.4,
            "currency": "USD"
          }
        },
        {
          "category": {
            "coding": [
              {
                "id": "28126ede-f7f8-5665-990c-c10ba934bc40",
                "system": "https://bluebutton.cms.gov/resources/codesystem/adjudication",
                "code": "https://bluebutton.cms.gov/resources/variables/line_alowd_chrg_amt",
                "display": "Line Allowed Charge Amount"
              }
            ]
          },
          "amount": {
            "value": 431.4,
            "currency": "USD"
          }
        },
        {
          "category": {
            "coding": [
              {
                "id": "b0971df9-d97f-5f01-8903-9cfd3330386e",
                "system": "https://bluebutton.cms.gov/resources/codesystem/adjudication",
                "code": "https://bluebutton.cms.gov/resources/variables/line_bene_ptb_ddctbl_amt",
                "display": "Line Beneficiary Part B Deductible Amount"
              }
            ]
          },
          "amount": {
            "value": 0,
            "currency": "USD"
          }
        },
        {
          "category": {
            "coding": [
              {
                "id": "8ef27c8a-80f3-5ec1-a673-c894f368a84b",
                "system": "https://bluebutton.cms.gov/resources/codesystem/adjudication",
                "code": "https://bluebutton.cms.gov/resources/variables/line_prcsg_ind_cd",
                "display": "Line Processing Indicator Code"
              }
            ]
          }
        }
      ]
    },
    {
      "sequence": 4,
      "informationSequence": [
        1
      ],
      "category": {
        "coding": [
          {
            "id": "295af87c-7be2-5716-a727-d01c781be9a4",
            "system": "https://bluebutton.cms.gov/resources/variables/line_cms_type_srvc_cd",
            "code": "1",
            "display": "Medical care"
          }
        ]
      },
      "productOrService": {
        "coding": [
          {
            "id": "8b71c0af-e0ae-5120-b0cd-acfc361ced55",
            "system": "http://snomed.info/sct",
            "code": "277183007",
            "display": "Dental equipment (physical object)"
          }
        ],
        "text": "Dental equipment (physical object)"
      },
      "servicedPeriod": {
        "start": "2019-11-16T20:58:10+00:00",
        "end": "2019-11-17T02:30:31+00:00"
      },
      "locationCodeableConcept": {
        "coding": [
          {
            "id": "d49c4a46-8fec-5672-af5f-4cce13267d8e",
            "system": "http://terminology.hl7.org/CodeSystem/ex-serviceplace",
            "code": "21",
            "display": "Inpatient Hospital"
          }
        ]
      },
      "net": {
        "value": 0,
        "currency": "USD"
      },
      "adjudication": [
        {
          "category": {
            "coding": [
              {
                "id": "e33f1fb9-52f8-5909-b4b3-ddd8cd5abfb6",
                "system": "https://bluebutton.cms.gov/resources/codesystem/adjudication",
                "code": "https://bluebutton.cms.gov/resources/variables/line_coinsrnc_amt",
                "display": "Line Beneficiary Coinsurance Amount"
              }
            ]
          },
          "amount": {
            "value": 0,
            "currency": "USD"
          }
        },
        {
          "category": {
            "coding": [
              {
                "id": "013c0dff-5302-5406-95cc-6c3a033aad23",
                "system": "https://bluebutton.cms.gov/resources/codesystem/adjudication",
                "code": "https://bluebutton.cms.gov/resources/variables/line_prvdr_pmt_amt",
                "display": "Line Provider Payment Amount"
              }
            ]
          },
          "amount": {
            "value": 0,
            "currency": "USD"
          }
        },
        {
          "category": {
            "coding": [
              {
                "id": "d7c793d6-cfa7-5320-bc80-8dcdd65bba53",
                "system": "https://bluebutton.cms.gov/resources/codesystem/adjudication",
                "code": "https://bluebutton.cms.gov/resources/variables/line_sbmtd_chrg_amt",
                "display": "Line Submitted Charge Amount"
              }
            ]
          },
          "amount": {
            "value": 0,
            "currency": "USD"
          }
        },
        {
          "category": {
            "coding": [
              {
                "id": "28126ede-f7f8-5665-990c-c10ba934bc40",
                "system": "https://bluebutton.cms.gov/resources/codesystem/adjudication",
                "code": "https://bluebutton.cms.gov/resources/variables/line_alowd_chrg_amt",
                "display": "Line Allowed Charge Amount"
              }
            ]
          },
          "amount": {
            "value": 0,
            "currency": "USD"
          }
        },
        {
          "category": {
            "coding": [
              {
                "id": "b0971df9-d97f-5f01-8903-9cfd3330386e",
                "system": "https://bluebutton.cms.gov/resources/codesystem/adjudication",
                "code": "https://bluebutton.cms.gov/resources/variables/line_bene_ptb_ddctbl_amt",
                "display": "Line Beneficiary Part B Deductible Amount"
              }
            ]
          },
          "amount": {
            "value": 0,
            "currency": "USD"
          }
        },
        {
          "category": {
            "coding": [
              {
                "id": "8ef27c8a-80f3-5ec1-a673-c894f368a84b",
                "system": "https://bluebutton.cms.gov/resources/codesystem/adjudication",
                "code": "https://bluebutton.cms.gov/resources/variables/line_prcsg_ind_cd",
                "display": "Line Processing Indicator Code"
              }
            ]
          }
        }
      ]
    },
    {
      "sequence": 5,
      "informationSequence": [
        2
      ],
      "category": {
        "coding": [
          {
            "id": "295af87c-7be2-5716-a727-d01c781be9a4",
            "system": "https://bluebutton.cms.gov/resources/variables/line_cms_type_srvc_cd",
            "code": "1",
            "display": "Medical care"
          }
        ]
      },
      "productOrService": {
        "coding": [
          {
            "id": "499a9386-1d7c-5571-977d-547d43b34ce2",
            "system": "http://snomed.info/sct",
            "code": "1230220004",
            "display": "Conventional release periodontal gel (dose form)"
          }
        ],
        "text": "Conventional release periodontal gel (dose form)"
      },
      "servicedPeriod": {
        "start": "2019-11-16T20:58:10+00:00",
        "end": "2019-11-17T02:30:31+00:00"
      },
      "locationCodeableConcept": {
        "coding": [
          {
            "id": "d49c4a46-8fec-5672-af5f-4cce13267d8e",
            "system": "http://terminology.hl7.org/CodeSystem/ex-serviceplace",
            "code": "21",
            "display": "Inpatient Hospital"
          }
        ]
      },
      "net": {
        "value": 0,
        "currency": "USD"
      },
      "adjudication": [
        {
          "category": {
            "coding": [
              {
                "id": "e33f1fb9-52f8-5909-b4b3-ddd8cd5abfb6",
                "system": "https://bluebutton.cms.gov/resources/codesystem/adjudication",
                "code": "https://bluebutton.cms.gov/resources/variables/line_coinsrnc_amt",
                "display": "Line Beneficiary Coinsurance Amount"
              }
            ]
          },
          "amount": {
            "value": 0,
            "currency": "USD"
          }
        },
        {
          "category": {
            "coding": [
              {
                "id": "013c0dff-5302-5406-95cc-6c3a033aad23",
                "system": "https://bluebutton.cms.gov/resources/codesystem/adjudication",
                "code": "https://bluebutton.cms.gov/resources/variables/line_prvdr_pmt_amt",
                "display": "Line Provider Payment Amount"
              }
            ]
          },
          "amount": {
            "value": 0,
            "currency": "USD"
          }
        },
        {
          "category": {
            "coding": [
              {
                "id": "d7c793d6-cfa7-5320-bc80-8dcdd65bba53",
                "system": "https://bluebutton.cms.gov/resources/codesystem/adjudication",
                "code": "https://bluebutton.cms.gov/resources/variables/line_sbmtd_chrg_amt",
                "display": "Line Submitted Charge Amount"
              }
            ]
          },
          "amount": {
            "value": 0,
            "currency": "USD"
          }
        },
        {
          "category": {
            "coding": [
              {
                "id": "28126ede-f7f8-5665-990c-c10ba934bc40",
                "system": "https://bluebutton.cms.gov/resources/codesystem/adjudication",
                "code": "https://bluebutton.cms.gov/resources/variables/line_alowd_chrg_amt",
                "display": "Line Allowed Charge Amount"
              }
            ]
          },
          "amount": {
            "value": 0,
            "currency": "USD"
          }
        },
        {
          "category": {
            "coding": [
              {
                "id": "b0971df9-d97f-5f01-8903-9cfd3330386e",
                "system": "https://bluebutton.cms.gov/resources/codesystem/adjudication",
                "code": "https://bluebutton.cms.gov/resources/variables/line_bene_ptb_ddctbl_amt",
                "display": "Line Beneficiary Part B Deductible Amount"
              }
            ]
          },
          "amount": {
            "value": 0,
            "currency": "USD"
          }
        },
        {
          "category": {
            "coding": [
              {
                "id": "8ef27c8a-80f3-5ec1-a673-c894f368a84b",
                "system": "https://bluebutton.cms.gov/resources/codesystem/adjudication",
                "code": "https://bluebutton.cms.gov/resources/variables/line_prcsg_ind_cd",
                "display": "Line Processing Indicator Code"
              }
            ]
          }
        }
      ]
    },
    {
      "sequence": 6,
      "informationSequence": [
        3
      ],
      "category": {
        "coding": [
          {
            "id": "295af87c-7be2-5716-a727-d01c781be9a4",
            "system": "https://bluebutton.cms.gov/resources/variables/line_cms_type_srvc_cd",
            "code": "1",
            "display": "Medical care"
          }
        ]
      },
      "productOrService": {
        "coding": [
          {
            "id": "a7948882-e609-5def-a741-e0d2bd03969e",
            "system": "http://snomed.info/sct",
            "code": "469020004",
            "display": "Dental floss (physical object)"
          }
        ],
        "text": "Dental floss (physical object)"
      },
      "servicedPeriod": {
        "start": "2019-11-16T20:58:10+00:00",
        "end": "2019-11-17T02:30:31+00:00"
      },
      "locationCodeableConcept": {
        "coding": [
          {
            "id": "d49c4a46-8fec-5672-af5f-4cce13267d8e",
            "system": "http://terminology.hl7.org/CodeSystem/ex-serviceplace",
            "code": "21",
            "display": "Inpatient Hospital"
          }
        ]
      },
      "net": {
        "value": 0,
        "currency": "USD"
      },
      "adjudication": [
        {
          "category": {
            "coding": [
              {
                "id": "e33f1fb9-52f8-5909-b4b3-ddd8cd5abfb6",
                "system": "https://bluebutton.cms.gov/resources/codesystem/adjudication",
                "code": "https://bluebutton.cms.gov/resources/variables/line_coinsrnc_amt",
                "display": "Line Beneficiary Coinsurance Amount"
              }
            ]
          },
          "amount": {
            "value": 0,
            "currency": "USD"
          }
        },
        {
          "category": {
            "coding": [
              {
                "id": "013c0dff-5302-5406-95cc-6c3a033aad23",
                "system": "https://bluebutton.cms.gov/resources/codesystem/adjudication",
                "code": "https://bluebutton.cms.gov/resources/variables/line_prvdr_pmt_amt",
                "display": "Line Provider Payment Amount"
              }
            ]
          },
          "amount": {
            "value": 0,
            "currency": "USD"
          }
        },
        {
          "category": {
            "coding": [
              {
                "id": "d7c793d6-cfa7-5320-bc80-8dcdd65bba53",
                "system": "https://bluebutton.cms.gov/resources/codesystem/adjudication",
                "code": "https://bluebutton.cms.gov/resources/variables/line_sbmtd_chrg_amt",
                "display": "Line Submitted Charge Amount"
              }
            ]
          },
          "amount": {
            "value": 0,
            "currency": "USD"
          }
        },
        {
          "category": {
            "coding": [
              {
                "id": "28126ede-f7f8-5665-990c-c10ba934bc40",
                "system": "https://bluebutton.cms.gov/resources/codesystem/adjudication",
                "code": "https://bluebutton.cms.gov/resources/variables/line_alowd_chrg_amt",
                "display": "Line Allowed Charge Amount"
              }
            ]
          },
          "amount": {
            "value": 0,
            "currency": "USD"
          }
        },
        {
          "category": {
            "coding": [
              {
                "id": "b0971df9-d97f-5f01-8903-9cfd3330386e",
                "system": "https://bluebutton.cms.gov/resources/codesystem/adjudication",
                "code": "https://bluebutton.cms.gov/resources/variables/line_bene_ptb_ddctbl_amt",
                "display": "Line Beneficiary Part B Deductible Amount"
              }
            ]
          },
          "amount": {
            "value": 0,
            "currency": "USD"
          }
        },
        {
          "category": {
            "coding": [
              {
                "id": "8ef27c8a-80f3-5ec1-a673-c894f368a84b",
                "system": "https://bluebutton.cms.gov/resources/codesystem/adjudication",
                "code": "https://bluebutton.cms.gov/resources/variables/line_prcsg_ind_cd",
                "display": "Line Processing Indicator Code"
              }
            ]
          }
        }
      ]
    },
    {
      "sequence": 7,
      "category": {
        "coding": [
          {
            "id": "295af87c-7be2-5716-a727-d01c781be9a4",
            "system": "https://bluebutton.cms.gov/resources/variables/line_cms_type_srvc_cd",
            "code": "1",
            "display": "Medical care"
          }
        ]
      },
      "productOrService": {
        "coding": [
          {
            "id": "07bf9b52-0147-5f79-a16a-ecb84f8b79bc",
            "system": "http://snomed.info/sct",
            "code": "1260009003",
            "display": "Removal of supragingival plaque and calculus from all teeth using dental instrument (procedure)"
          }
        ],
        "text": "Removal of supragingival plaque and calculus from all teeth using dental instrument (procedure)"
      },
      "servicedPeriod": {
        "start": "2019-11-16T20:58:10+00:00",
        "end": "2019-11-17T02:30:31+00:00"
      },
      "locationCodeableConcept": {
        "coding": [
          {
            "id": "d49c4a46-8fec-5672-af5f-4cce13267d8e",
            "system": "http://terminology.hl7.org/CodeSystem/ex-serviceplace",
            "code": "21",
            "display": "Inpatient Hospital"
          }
        ]
      },
      "net": {
        "value": 431.4,
        "currency": "USD"
      },
      "adjudication": [
        {
          "category": {
            "coding": [
              {
                "id": "e33f1fb9-52f8-5909-b4b3-ddd8cd5abfb6",
                "system": "https://bluebutton.cms.gov/resources/codesystem/adjudication",
                "code": "https://bluebutton.cms.gov/resources/variables/line_coinsrnc_amt",
                "display": "Line Beneficiary Coinsurance Amount"
              }
            ]
          },
          "amount": {
            "value": 86.28,
            "currency": "USD"
          }
        },
        {
          "category": {
            "coding": [
              {
                "id": "013c0dff-5302-5406-95cc-6c3a033aad23",
                "system": "https://bluebutton.cms.gov/resources/codesystem/adjudication",
                "code": "https://bluebutton.cms.gov/resources/variables/line_prvdr_pmt_amt",
                "display": "Line Provider Payment Amount"
              }
            ]
          },
          "amount": {
            "value": 345.12,
            "currency": "USD"
          }
        },
        {
          "category": {
            "coding": [
              {
                "id": "d7c793d6-cfa7-5320-bc80-8dcdd65bba53",
                "system": "https://bluebutton.cms.gov/resources/codesystem/adjudication",
                "code": "https://bluebutton.cms.gov/resources/variables/line_sbmtd_chrg_amt",
                "display": "Line Submitted Charge Amount"
              }
            ]
          },
          "amount": {
            "value": 431.4,
            "currency": "USD"
          }
        },
        {
          "category": {
            "coding": [
              {
                "id": "28126ede-f7f8-5665-990c-c10ba934bc40",
                "system": "https://bluebutton.cms.gov/resources/codesystem/adjudication",
                "code": "https://bluebutton.cms.gov/resources/variables/line_alowd_chrg_amt",
                "display": "Line Allowed Charge Amount"
              }
            ]
          },
          "amount": {
            "value": 431.4,
            "currency": "USD"
          }
        },
        {
          "category": {
            "coding": [
              {
                "id": "b0971df9-d97f-5f01-8903-9cfd3330386e",
                "system": "https://bluebutton.cms.gov/resources/codesystem/adjudication",
                "code": "https://bluebutton.cms.gov/resources/variables/line_bene_ptb_ddctbl_amt",
                "display": "Line Beneficiary Part B Deductible Amount"
              }
            ]
          },
          "amount": {
            "value": 0,
            "currency": "USD"
          }
        },
        {
          "category": {
            "coding": [
              {
                "id": "8ef27c8a-80f3-5ec1-a673-c894f368a84b",
                "system": "https://bluebutton.cms.gov/resources/codesystem/adjudication",
                "code": "https://bluebutton.cms.gov/resources/variables/line_prcsg_ind_cd",
                "display": "Line Processing Indicator Code"
              }
            ]
          }
        }
      ]
    },
    {
      "sequence": 8,
      "category": {
        "coding": [
          {
            "id": "295af87c-7be2-5716-a727-d01c781be9a4",
            "system": "https://bluebutton.cms.gov/resources/variables/line_cms_type_srvc_cd",
            "code": "1",
            "display": "Medical care"
          }
        ]
      },
      "productOrService": {
        "coding": [
          {
            "id": "54707d1c-9ce5-51df-949b-459b5cccfb85",
            "system": "http://snomed.info/sct",
            "code": "1260010008",
            "display": "Removal of subgingival plaque and calculus from all teeth using dental instrument (procedure)"
          }
        ],
        "text": "Removal of subgingival plaque and calculus from all teeth using dental instrument (procedure)"
      },
      "servicedPeriod": {
        "start": "2019-11-16T20:58:10+00:00",
        "end": "2019-11-17T02:30:31+00:00"
      },
      "locationCodeableConcept": {
        "coding": [
          {
            "id": "d49c4a46-8fec-5672-af5f-4cce13267d8e",
            "system": "http://terminology.hl7.org/CodeSystem/ex-serviceplace",
            "code": "21",
            "display": "Inpatient Hospital"
          }
        ]
      },
      "net": {
        "value": 431.4,
        "currency": "USD"
      },
      "adjudication": [
        {
          "category": {
            "coding": [
              {
                "id": "e33f1fb9-52f8-5909-b4b3-ddd8cd5abfb6",
                "system": "https://bluebutton.cms.gov/resources/codesystem/adjudication",
                "code": "https://bluebutton.cms.gov/resources/variables/line_coinsrnc_amt",
                "display": "Line Beneficiary Coinsurance Amount"
              }
            ]
          },
          "amount": {
            "value": 86.28,
            "currency": "USD"
          }
        },
        {
          "category": {
            "coding": [
              {
                "id": "013c0dff-5302-5406-95cc-6c3a033aad23",
                "system": "https://bluebutton.cms.gov/resources/codesystem/adjudication",
                "code": "https://bluebutton.cms.gov/resources/variables/line_prvdr_pmt_amt",
                "display": "Line Provider Payment Amount"
              }
            ]
          },
          "amount": {
            "value": 345.12,
            "currency": "USD"
          }
        },
        {
          "category": {
            "coding": [
              {
                "id": "d7c793d6-cfa7-5320-bc80-8dcdd65bba53",
                "system": "https://bluebutton.cms.gov/resources/codesystem/adjudication",
                "code": "https://bluebutton.cms.gov/resources/variables/line_sbmtd_chrg_amt",
                "display": "Line Submitted Charge Amount"
              }
            ]
          },
          "amount": {
            "value": 431.4,
            "currency": "USD"
          }
        },
        {
          "category": {
            "coding": [
              {
                "id": "28126ede-f7f8-5665-990c-c10ba934bc40",
                "system": "https://bluebutton.cms.gov/resources/codesystem/adjudication",
                "code": "https://bluebutton.cms.gov/resources/variables/line_alowd_chrg_amt",
                "display": "Line Allowed Charge Amount"
              }
            ]
          },
          "amount": {
            "value": 431.4,
            "currency": "USD"
          }
        },
        {
          "category": {
            "coding": [
              {
                "id": "b0971df9-d97f-5f01-8903-9cfd3330386e",
                "system": "https://bluebutton.cms.gov/resources/codesystem/adjudication",
                "code": "https://bluebutton.cms.gov/resources/variables/line_bene_ptb_ddctbl_amt",
                "display": "Line Beneficiary Part B Deductible Amount"
              }
            ]
          },
          "amount": {
            "value": 0,
            "currency": "USD"
          }
        },
        {
          "category": {
            "coding": [
              {
                "id": "8ef27c8a-80f3-5ec1-a673-c894f368a84b",
                "system": "https://bluebutton.cms.gov/resources/codesystem/adjudication",
                "code": "https://bluebutton.cms.gov/resources/variables/line_prcsg_ind_cd",
                "display": "Line Processing Indicator Code"
              }
            ]
          }
        }
      ]
    },
    {
      "sequence": 9,
      "informationSequence": [
        4
      ],
      "category": {
        "coding": [
          {
            "id": "295af87c-7be2-5716-a727-d01c781be9a4",
            "system": "https://bluebutton.cms.gov/resources/variables/line_cms_type_srvc_cd",
            "code": "1",
            "display": "Medical care"
          }
        ]
      },
      "productOrService": {
        "coding": [
          {
            "id": "ae4e51a9-5a60-5412-9c4d-6d941148c06c",
            "system": "http://snomed.info/sct",
            "code": "706298007",
            "display": "Dental x-ray system (physical object)"
          }
        ],
        "text": "Dental x-ray system (physical object)"
      },
      "servicedPeriod": {
        "start": "2019-11-16T20:58:10+00:00",
        "end": "2019-11-17T02:30:31+00:00"
      },
      "locationCodeableConcept": {
        "coding": [
          {
            "id": "d49c4a46-8fec-5672-af5f-4cce13267d8e",
            "system": "http://terminology.hl7.org/CodeSystem/ex-serviceplace",
            "code": "21",
            "display": "Inpatient Hospital"
          }
        ]
      },
      "net": {
        "value": 0,
        "currency": "USD"
      },
      "adjudication": [
        {
          "category": {
            "coding": [
              {
                "id": "e33f1fb9-52f8-5909-b4b3-ddd8cd5abfb6",
                "system": "https://bluebutton.cms.gov/resources/codesystem/adjudication",
                "code": "https://bluebutton.cms.gov/resources/variables/line_coinsrnc_amt",
                "display": "Line Beneficiary Coinsurance Amount"
              }
            ]
          },
          "amount": {
            "value": 0,
            "currency": "USD"
          }
        },
        {
          "category": {
            "coding": [
              {
                "id": "013c0dff-5302-5406-95cc-6c3a033aad23",
                "system": "https://bluebutton.cms.gov/resources/codesystem/adjudication",
                "code": "https://bluebutton.cms.gov/resources/variables/line_prvdr_pmt_amt",
                "display": "Line Provider Payment Amount"
              }
            ]
          },
          "amount": {
            "value": 0,
            "currency": "USD"
          }
        },
        {
          "category": {
            "coding": [
              {
                "id": "d7c793d6-cfa7-5320-bc80-8dcdd65bba53",
                "system": "https://bluebutton.cms.gov/resources/codesystem/adjudication",
                "code": "https://bluebutton.cms.gov/resources/variables/line_sbmtd_chrg_amt",
                "display": "Line Submitted Charge Amount"
              }
            ]
          },
          "amount": {
            "value": 0,
            "currency": "USD"
          }
        },
        {
          "category": {
            "coding": [
              {
                "id": "28126ede-f7f8-5665-990c-c10ba934bc40",
                "system": "https://bluebutton.cms.gov/resources/codesystem/adjudication",
                "code": "https://bluebutton.cms.gov/resources/variables/line_alowd_chrg_amt",
                "display": "Line Allowed Charge Amount"
              }
            ]
          },
          "amount": {
            "value": 0,
            "currency": "USD"
          }
        },
        {
          "category": {
            "coding": [
              {
                "id": "b0971df9-d97f-5f01-8903-9cfd3330386e",
                "system": "https://bluebutton.cms.gov/resources/codesystem/adjudication",
                "code": "https://bluebutton.cms.gov/resources/variables/line_bene_ptb_ddctbl_amt",
                "display": "Line Beneficiary Part B Deductible Amount"
              }
            ]
          },
          "amount": {
            "value": 0,
            "currency": "USD"
          }
        },
        {
          "category": {
            "coding": [
              {
                "id": "8ef27c8a-80f3-5ec1-a673-c894f368a84b",
                "system": "https://bluebutton.cms.gov/resources/codesystem/adjudication",
                "code": "https://bluebutton.cms.gov/resources/variables/line_prcsg_ind_cd",
                "display": "Line Processing Indicator Code"
              }
            ]
          }
        }
      ]
    },
    {
      "sequence": 10,
      "category": {
        "coding": [
          {
            "id": "295af87c-7be2-5716-a727-d01c781be9a4",
            "system": "https://bluebutton.cms.gov/resources/variables/line_cms_type_srvc_cd",
            "code": "1",
            "display": "Medical care"
          }
        ]
      },
      "productOrService": {
        "coding": [
          {
            "id": "43922ed3-1b84-57e7-88c1-556109129f99",
            "system": "http://snomed.info/sct",
            "code": "241046008",
            "display": "Dental plain X-ray bitewing (procedure)"
          }
        ],
        "text": "Dental plain X-ray bitewing (procedure)"
      },
      "servicedPeriod": {
        "start": "2019-11-16T20:58:10+00:00",
        "end": "2019-11-17T02:30:31+00:00"
      },
      "locationCodeableConcept": {
        "coding": [
          {
            "id": "d49c4a46-8fec-5672-af5f-4cce13267d8e",
            "system": "http://terminology.hl7.org/CodeSystem/ex-serviceplace",
            "code": "21",
            "display": "Inpatient Hospital"
          }
        ]
      },
      "net": {
        "value": 431.4,
        "currency": "USD"
      },
      "adjudication": [
        {
          "category": {
            "coding": [
              {
                "id": "e33f1fb9-52f8-5909-b4b3-ddd8cd5abfb6",
                "system": "https://bluebutton.cms.gov/resources/codesystem/adjudication",
                "code": "https://bluebutton.cms.gov/resources/variables/line_coinsrnc_amt",
                "display": "Line Beneficiary Coinsurance Amount"
              }
            ]
          },
          "amount": {
            "value": 86.28,
            "currency": "USD"
          }
        },
        {
          "category": {
            "coding": [
              {
                "id": "013c0dff-5302-5406-95cc-6c3a033aad23",
                "system": "https://bluebutton.cms.gov/resources/codesystem/adjudication",
                "code": "https://bluebutton.cms.gov/resources/variables/line_prvdr_pmt_amt",
                "display": "Line Provider Payment Amount"
              }
            ]
          },
          "amount": {
            "value": 345.12,
            "currency": "USD"
          }
        },
        {
          "category": {
            "coding": [
              {
                "id": "d7c793d6-cfa7-5320-bc80-8dcdd65bba53",
                "system": "https://bluebutton.cms.gov/resources/codesystem/adjudication",
                "code": "https://bluebutton.cms.gov/resources/variables/line_sbmtd_chrg_amt",
                "display": "Line Submitted Charge Amount"
              }
            ]
          },
          "amount": {
            "value": 431.4,
            "currency": "USD"
          }
        },
        {
          "category": {
            "coding": [
              {
                "id": "28126ede-f7f8-5665-990c-c10ba934bc40",
                "system": "https://bluebutton.cms.gov/resources/codesystem/adjudication",
                "code": "https://bluebutton.cms.gov/resources/variables/line_alowd_chrg_amt",
                "display": "Line Allowed Charge Amount"
              }
            ]
          },
          "amount": {
            "value": 431.4,
            "currency": "USD"
          }
        },
        {
          "category": {
            "coding": [
              {
                "id": "b0971df9-d97f-5f01-8903-9cfd3330386e",
                "system": "https://bluebutton.cms.gov/resources/codesystem/adjudication",
                "code": "https://bluebutton.cms.gov/resources/variables/line_bene_ptb_ddctbl_amt",
                "display": "Line Beneficiary Part B Deductible Amount"
              }
            ]
          },
          "amount": {
            "value": 0,
            "currency": "USD"
          }
        },
        {
          "category": {
            "coding": [
              {
                "id": "8ef27c8a-80f3-5ec1-a673-c894f368a84b",
                "system": "https://bluebutton.cms.gov/resources/codesystem/adjudication",
                "code": "https://bluebutton.cms.gov/resources/variables/line_prcsg_ind_cd",
                "display": "Line Processing Indicator Code"
              }
            ]
          }
        }
      ]
    },
    {
      "sequence": 11,
      "category": {
        "coding": [
          {
            "id": "295af87c-7be2-5716-a727-d01c781be9a4",
            "system": "https://bluebutton.cms.gov/resources/variables/line_cms_type_srvc_cd",
            "code": "1",
            "display": "Medical care"
          }
        ]
      },
      "productOrService": {
        "coding": [
          {
            "id": "4b1f1012-3aea-59e5-918f-7e913e2713e2",
            "system": "http://snomed.info/sct",
            "code": "274788003",
            "display": "Examination of gingivae (procedure)"
          }
        ],
        "text": "Examination of gingivae (procedure)"
      },
      "servicedPeriod": {
        "start": "2019-11-16T20:58:10+00:00",
        "end": "2019-11-17T02:30:31+00:00"
      },
      "locationCodeableConcept": {
        "coding": [
          {
            "id": "d49c4a46-8fec-5672-af5f-4cce13267d8e",
            "system": "http://terminology.hl7.org/CodeSystem/ex-serviceplace",
            "code": "21",
            "display": "Inpatient Hospital"
          }
        ]
      },
      "net": {
        "value": 431.4,
        "currency": "USD"
      },
      "adjudication": [
        {
          "category": {
            "coding": [
              {
                "id": "e33f1fb9-52f8-5909-b4b3-ddd8cd5abfb6",
                "system": "https://bluebutton.cms.gov/resources/codesystem/adjudication",
                "code": "https://bluebutton.cms.gov/resources/variables/line_coinsrnc_amt",
                "display": "Line Beneficiary Coinsurance Amount"
              }
            ]
          },
          "amount": {
            "value": 86.28,
            "currency": "USD"
          }
        },
        {
          "category": {
            "coding": [
              {
                "id": "013c0dff-5302-5406-95cc-6c3a033aad23",
                "system": "https://bluebutton.cms.gov/resources/codesystem/adjudication",
                "code": "https://bluebutton.cms.gov/resources/variables/line_prvdr_pmt_amt",
                "display": "Line Provider Payment Amount"
              }
            ]
          },
          "amount": {
            "value": 345.12,
            "currency": "USD"
          }
        },
        {
          "category": {
            "coding": [
              {
                "id": "d7c793d6-cfa7-5320-bc80-8dcdd65bba53",
                "system": "https://bluebutton.cms.gov/resources/codesystem/adjudication",
                "code": "https://bluebutton.cms.gov/resources/variables/line_sbmtd_chrg_amt",
                "display": "Line Submitted Charge Amount"
              }
            ]
          },
          "amount": {
            "value": 431.4,
            "currency": "USD"
          }
        },
        {
          "category": {
            "coding": [
              {
                "id": "28126ede-f7f8-5665-990c-c10ba934bc40",
                "system": "https://bluebutton.cms.gov/resources/codesystem/adjudication",
                "code": "https://bluebutton.cms.gov/resources/variables/line_alowd_chrg_amt",
                "display": "Line Allowed Charge Amount"
              }
            ]
          },
          "amount": {
            "value": 431.4,
            "currency": "USD"
          }
        },
        {
          "category": {
            "coding": [
              {
                "id": "b0971df9-d97f-5f01-8903-9cfd3330386e",
                "system": "https://bluebutton.cms.gov/resources/codesystem/adjudication",
                "code": "https://bluebutton.cms.gov/resources/variables/line_bene_ptb_ddctbl_amt",
                "display": "Line Beneficiary Part B Deductible Amount"
              }
            ]
          },
          "amount": {
            "value": 0,
            "currency": "USD"
          }
        },
        {
          "category": {
            "coding": [
              {
                "id": "8ef27c8a-80f3-5ec1-a673-c894f368a84b",
                "system": "https://bluebutton.cms.gov/resources/codesystem/adjudication",
                "code": "https://bluebutton.cms.gov/resources/variables/line_prcsg_ind_cd",
                "display": "Line Processing Indicator Code"
              }
            ]
          }
        }
      ]
    },
    {
      "sequence": 12,
      "diagnosisSequence": [
        1
      ],
      "category": {
        "coding": [
          {
            "id": "295af87c-7be2-5716-a727-d01c781be9a4",
            "system": "https://bluebutton.cms.gov/resources/variables/line_cms_type_srvc_cd",
            "code": "1",
            "display": "Medical care"
          }
        ]
      },
      "productOrService": {
        "coding": [
          {
            "id": "f7d28ca1-bc3f-5ea7-b213-54cf50f9a159",
            "system": "http://snomed.info/sct",
            "code": "18718003",
            "display": "Gingival disease (disorder)"
          }
        ],
        "text": "Gingival disease (disorder)"
      },
      "servicedPeriod": {
        "start": "2019-11-16T20:58:10+00:00",
        "end": "2019-11-17T02:30:31+00:00"
      },
      "locationCodeableConcept": {
        "coding": [
          {
            "id": "d49c4a46-8fec-5672-af5f-4cce13267d8e",
            "system": "http://terminology.hl7.org/CodeSystem/ex-serviceplace",
            "code": "21",
            "display": "Inpatient Hospital"
          }
        ]
      }
    },
    {
      "sequence": 13,
      "informationSequence": [
        5
      ],
      "category": {
        "coding": [
          {
            "id": "295af87c-7be2-5716-a727-d01c781be9a4",
            "system": "https://bluebutton.cms.gov/resources/variables/line_cms_type_srvc_cd",
            "code": "1",
            "display": "Medical care"
          }
        ]
      },
      "productOrService": {
        "coding": [
          {
            "id": "8b25d21c-c5bb-5c62-80bd-468518a2bed8",
            "system": "http://snomed.info/sct",
            "code": "225738002",
            "display": "Operating room (environment)"
          }
        ],
        "text": "Operating room (environment)"
      },
      "servicedPeriod": {
        "start": "2019-11-16T20:58:10+00:00",
        "end": "2019-11-17T02:30:31+00:00"
      },
      "locationCodeableConcept": {
        "coding": [
          {
            "id": "d49c4a46-8fec-5672-af5f-4cce13267d8e",
            "system": "http://terminology.hl7.org/CodeSystem/ex-serviceplace",
            "code": "21",
            "display": "Inpatient Hospital"
          }
        ]
      },
      "net": {
        "value": 0,
        "currency": "USD"
      },
      "adjudication": [
        {
          "category": {
            "coding": [
              {
                "id": "e33f1fb9-52f8-5909-b4b3-ddd8cd5abfb6",
                "system": "https://bluebutton.cms.gov/resources/codesystem/adjudication",
                "code": "https://bluebutton.cms.gov/resources/variables/line_coinsrnc_amt",
                "display": "Line Beneficiary Coinsurance Amount"
              }
            ]
          },
          "amount": {
            "value": 0,
            "currency": "USD"
          }
        },
        {
          "category": {
            "coding": [
              {
                "id": "013c0dff-5302-5406-95cc-6c3a033aad23",
                "system": "https://bluebutton.cms.gov/resources/codesystem/adjudication",
                "code": "https://bluebutton.cms.gov/resources/variables/line_prvdr_pmt_amt",
                "display": "Line Provider Payment Amount"
              }
            ]
          },
          "amount": {
            "value": 0,
            "currency": "USD"
          }
        },
        {
          "category": {
            "coding": [
              {
                "id": "d7c793d6-cfa7-5320-bc80-8dcdd65bba53",
                "system": "https://bluebutton.cms.gov/resources/codesystem/adjudication",
                "code": "https://bluebutton.cms.gov/resources/variables/line_sbmtd_chrg_amt",
                "display": "Line Submitted Charge Amount"
              }
            ]
          },
          "amount": {
            "value": 0,
            "currency": "USD"
          }
        },
        {
          "category": {
            "coding": [
              {
                "id": "28126ede-f7f8-5665-990c-c10ba934bc40",
                "system": "https://bluebutton.cms.gov/resources/codesystem/adjudication",
                "code": "https://bluebutton.cms.gov/resources/variables/line_alowd_chrg_amt",
                "display": "Line Allowed Charge Amount"
              }
            ]
          },
          "amount": {
            "value": 0,
            "currency": "USD"
          }
        },
        {
          "category": {
            "coding": [
              {
                "id": "b0971df9-d97f-5f01-8903-9cfd3330386e",
                "system": "https://bluebutton.cms.gov/resources/codesystem/adjudication",
                "code": "https://bluebutton.cms.gov/resources/variables/line_bene_ptb_ddctbl_amt",
                "display": "Line Beneficiary Part B Deductible Amount"
              }
            ]
          },
          "amount": {
            "value": 0,
            "currency": "USD"
          }
        },
        {
          "category": {
            "coding": [
              {
                "id": "8ef27c8a-80f3-5ec1-a673-c894f368a84b",
                "system": "https://bluebutton.cms.gov/resources/codesystem/adjudication",
                "code": "https://bluebutton.cms.gov/resources/variables/line_prcsg_ind_cd",
                "display": "Line Processing Indicator Code"
              }
            ]
          }
        }
      ]
    },
    {
      "sequence": 14,
      "category": {
        "coding": [
          {
            "id": "295af87c-7be2-5716-a727-d01c781be9a4",
            "system": "https://bluebutton.cms.gov/resources/variables/line_cms_type_srvc_cd",
            "code": "1",
            "display": "Medical care"
          }
        ]
      },
      "productOrService": {
        "coding": [
          {
            "id": "c5bec652-0bbe-500b-b84f-bf14534c4737",
            "system": "http://snomed.info/sct",
            "code": "81733005",
            "display": "Dental surgical procedure (procedure)"
          }
        ],
        "text": "Dental surgical procedure (procedure)"
      },
      "servicedPeriod": {
        "start": "2019-11-16T20:58:10+00:00",
        "end": "2019-11-17T02:30:31+00:00"
      },
      "locationCodeableConcept": {
        "coding": [
          {
            "id": "d49c4a46-8fec-5672-af5f-4cce13267d8e",
            "system": "http://terminology.hl7.org/CodeSystem/ex-serviceplace",
            "code": "21",
            "display": "Inpatient Hospital"
          }
        ]
      },
      "net": {
        "value": 431.4,
        "currency": "USD"
      },
      "adjudication": [
        {
          "category": {
            "coding": [
              {
                "id": "e33f1fb9-52f8-5909-b4b3-ddd8cd5abfb6",
                "system": "https://bluebutton.cms.gov/resources/codesystem/adjudication",
                "code": "https://bluebutton.cms.gov/resources/variables/line_coinsrnc_amt",
                "display": "Line Beneficiary Coinsurance Amount"
              }
            ]
          },
          "amount": {
            "value": 86.28,
            "currency": "USD"
          }
        },
        {
          "category": {
            "coding": [
              {
                "id": "013c0dff-5302-5406-95cc-6c3a033aad23",
                "system": "https://bluebutton.cms.gov/resources/codesystem/adjudication",
                "code": "https://bluebutton.cms.gov/resources/variables/line_prvdr_pmt_amt",
                "display": "Line Provider Payment Amount"
              }
            ]
          },
          "amount": {
            "value": 345.12,
            "currency": "USD"
          }
        },
        {
          "category": {
            "coding": [
              {
                "id": "d7c793d6-cfa7-5320-bc80-8dcdd65bba53",
                "system": "https://bluebutton.cms.gov/resources/codesystem/adjudication",
                "code": "https://bluebutton.cms.gov/resources/variables/line_sbmtd_chrg_amt",
                "display": "Line Submitted Charge Amount"
              }
            ]
          },
          "amount": {
            "value": 431.4,
            "currency": "USD"
          }
        },
        {
          "category": {
            "coding": [
              {
                "id": "28126ede-f7f8-5665-990c-c10ba934bc40",
                "system": "https://bluebutton.cms.gov/resources/codesystem/adjudication",
                "code": "https://bluebutton.cms.gov/resources/variables/line_alowd_chrg_amt",
                "display": "Line Allowed Charge Amount"
              }
            ]
          },
          "amount": {
            "value": 431.4,
            "currency": "USD"
          }
        },
        {
          "category": {
            "coding": [
              {
                "id": "b0971df9-d97f-5f01-8903-9cfd3330386e",
                "system": "https://bluebutton.cms.gov/resources/codesystem/adjudication",
                "code": "https://bluebutton.cms.gov/resources/variables/line_bene_ptb_ddctbl_amt",
                "display": "Line Beneficiary Part B Deductible Amount"
              }
            ]
          },
          "amount": {
            "value": 0,
            "currency": "USD"
          }
        },
        {
          "category": {
            "coding": [
              {
                "id": "8ef27c8a-80f3-5ec1-a673-c894f368a84b",
                "system": "https://bluebutton.cms.gov/resources/codesystem/adjudication",
                "code": "https://bluebutton.cms.gov/resources/variables/line_prcsg_ind_cd",
                "display": "Line Processing Indicator Code"
              }
            ]
          }
        }
      ]
    },
    {
      "sequence": 15,
      "category": {
        "coding": [
          {
            "id": "295af87c-7be2-5716-a727-d01c781be9a4",
            "system": "https://bluebutton.cms.gov/resources/variables/line_cms_type_srvc_cd",
            "code": "1",
            "display": "Medical care"
          }
        ]
      },
      "productOrService": {
        "coding": [
          {
            "id": "b7231e23-329d-51a1-b4d8-4fd573f78733",
            "system": "http://snomed.info/sct",
            "code": "3802001",
            "display": "Dental application of desensitizing medicament (procedure)"
          }
        ],
        "text": "Dental application of desensitizing medicament (procedure)"
      },
      "servicedPeriod": {
        "start": "2019-11-16T20:58:10+00:00",
        "end": "2019-11-17T02:30:31+00:00"
      },
      "locationCodeableConcept": {
        "coding": [
          {
            "id": "d49c4a46-8fec-5672-af5f-4cce13267d8e",
            "system": "http://terminology.hl7.org/CodeSystem/ex-serviceplace",
            "code": "21",
            "display": "Inpatient Hospital"
          }
        ]
      },
      "net": {
        "value": 431.4,
        "currency": "USD"
      },
      "adjudication": [
        {
          "category": {
            "coding": [
              {
                "id": "e33f1fb9-52f8-5909-b4b3-ddd8cd5abfb6",
                "system": "https://bluebutton.cms.gov/resources/codesystem/adjudication",
                "code": "https://bluebutton.cms.gov/resources/variables/line_coinsrnc_amt",
                "display": "Line Beneficiary Coinsurance Amount"
              }
            ]
          },
          "amount": {
            "value": 86.28,
            "currency": "USD"
          }
        },
        {
          "category": {
            "coding": [
              {
                "id": "013c0dff-5302-5406-95cc-6c3a033aad23",
                "system": "https://bluebutton.cms.gov/resources/codesystem/adjudication",
                "code": "https://bluebutton.cms.gov/resources/variables/line_prvdr_pmt_amt",
                "display": "Line Provider Payment Amount"
              }
            ]
          },
          "amount": {
            "value": 345.12,
            "currency": "USD"
          }
        },
        {
          "category": {
            "coding": [
              {
                "id": "d7c793d6-cfa7-5320-bc80-8dcdd65bba53",
                "system": "https://bluebutton.cms.gov/resources/codesystem/adjudication",
                "code": "https://bluebutton.cms.gov/resources/variables/line_sbmtd_chrg_amt",
                "display": "Line Submitted Charge Amount"
              }
            ]
          },
          "amount": {
            "value": 431.4,
            "currency": "USD"
          }
        },
        {
          "category": {
            "coding": [
              {
                "id": "28126ede-f7f8-5665-990c-c10ba934bc40",
                "system": "https://bluebutton.cms.gov/resources/codesystem/adjudication",
                "code": "https://bluebutton.cms.gov/resources/variables/line_alowd_chrg_amt",
                "display": "Line Allowed Charge Amount"
              }
            ]
          },
          "amount": {
            "value": 431.4,
            "currency": "USD"
          }
        },
        {
          "category": {
            "coding": [
              {
                "id": "b0971df9-d97f-5f01-8903-9cfd3330386e",
                "system": "https://bluebutton.cms.gov/resources/codesystem/adjudication",
                "code": "https://bluebutton.cms.gov/resources/variables/line_bene_ptb_ddctbl_amt",
                "display": "Line Beneficiary Part B Deductible Amount"
              }
            ]
          },
          "amount": {
            "value": 0,
            "currency": "USD"
          }
        },
        {
          "category": {
            "coding": [
              {
                "id": "8ef27c8a-80f3-5ec1-a673-c894f368a84b",
                "system": "https://bluebutton.cms.gov/resources/codesystem/adjudication",
                "code": "https://bluebutton.cms.gov/resources/variables/line_prcsg_ind_cd",
                "display": "Line Processing Indicator Code"
              }
            ]
          }
        }
      ]
    },
    {
      "sequence": 16,
      "category": {
        "coding": [
          {
            "id": "295af87c-7be2-5716-a727-d01c781be9a4",
            "system": "https://bluebutton.cms.gov/resources/variables/line_cms_type_srvc_cd",
            "code": "1",
            "display": "Medical care"
          }
        ]
      },
      "productOrService": {
        "coding": [
          {
            "id": "c2de5a17-44c7-5653-87a8-7b34b790f542",
            "system": "http://snomed.info/sct",
            "code": "64544008",
            "display": "Gingivectomy or gingivoplasty, per tooth (procedure)"
          }
        ],
        "text": "Gingivectomy or gingivoplasty, per tooth (procedure)"
      },
      "servicedPeriod": {
        "start": "2019-11-16T20:58:10+00:00",
        "end": "2019-11-17T02:30:31+00:00"
      },
      "locationCodeableConcept": {
        "coding": [
          {
            "id": "d49c4a46-8fec-5672-af5f-4cce13267d8e",
            "system": "http://terminology.hl7.org/CodeSystem/ex-serviceplace",
            "code": "21",
            "display": "Inpatient Hospital"
          }
        ]
      },
      "net": {
        "value": 431.4,
        "currency": "USD"
      },
      "adjudication": [
        {
          "category": {
            "coding": [
              {
                "id": "e33f1fb9-52f8-5909-b4b3-ddd8cd5abfb6",
                "system": "https://bluebutton.cms.gov/resources/codesystem/adjudication",
                "code": "https://bluebutton.cms.gov/resources/variables/line_coinsrnc_amt",
                "display": "Line Beneficiary Coinsurance Amount"
              }
            ]
          },
          "amount": {
            "value": 86.28,
            "currency": "USD"
          }
        },
        {
          "category": {
            "coding": [
              {
                "id": "013c0dff-5302-5406-95cc-6c3a033aad23",
                "system": "https://bluebutton.cms.gov/resources/codesystem/adjudication",
                "code": "https://bluebutton.cms.gov/resources/variables/line_prvdr_pmt_amt",
                "display": "Line Provider Payment Amount"
              }
            ]
          },
          "amount": {
            "value": 345.12,
            "currency": "USD"
          }
        },
        {
          "category": {
            "coding": [
              {
                "id": "d7c793d6-cfa7-5320-bc80-8dcdd65bba53",
                "system": "https://bluebutton.cms.gov/resources/codesystem/adjudication",
                "code": "https://bluebutton.cms.gov/resources/variables/line_sbmtd_chrg_amt",
                "display": "Line Submitted Charge Amount"
              }
            ]
          },
          "amount": {
            "value": 431.4,
            "currency": "USD"
          }
        },
        {
          "category": {
            "coding": [
              {
                "id": "28126ede-f7f8-5665-990c-c10ba934bc40",
                "system": "https://bluebutton.cms.gov/resources/codesystem/adjudication",
                "code": "https://bluebutton.cms.gov/resources/variables/line_alowd_chrg_amt",
                "display": "Line Allowed Charge Amount"
              }
            ]
          },
          "amount": {
            "value": 431.4,
            "currency": "USD"
          }
        },
        {
          "category": {
            "coding": [
              {
                "id": "b0971df9-d97f-5f01-8903-9cfd3330386e",
                "system": "https://bluebutton.cms.gov/resources/codesystem/adjudication",
                "code": "https://bluebutton.cms.gov/resources/variables/line_bene_ptb_ddctbl_amt",
                "display": "Line Beneficiary Part B Deductible Amount"
              }
            ]
          },
          "amount": {
            "value": 0,
            "currency": "USD"
          }
        },
        {
          "category": {
            "coding": [
              {
                "id": "8ef27c8a-80f3-5ec1-a673-c894f368a84b",
                "system": "https://bluebutton.cms.gov/resources/codesystem/adjudication",
                "code": "https://bluebutton.cms.gov/resources/variables/line_prcsg_ind_cd",
                "display": "Line Processing Indicator Code"
              }
            ]
          }
        }
      ]
    },
    {
      "sequence": 17,
      "category": {
        "coding": [
          {
            "id": "295af87c-7be2-5716-a727-d01c781be9a4",
            "system": "https://bluebutton.cms.gov/resources/variables/line_cms_type_srvc_cd",
            "code": "1",
            "display": "Medical care"
          }
        ]
      },
      "productOrService": {
        "coding": [
          {
            "id": "1ff660d8-b502-59c4-8193-9acb2da55bec",
            "system": "http://snomed.info/sct",
            "code": "456191000124101",
            "display": "Postoperative care for dental procedure (regime/therapy)"
          }
        ],
        "text": "Postoperative care for dental procedure (regime/therapy)"
      },
      "servicedPeriod": {
        "start": "2019-11-16T20:58:10+00:00",
        "end": "2019-11-17T02:30:31+00:00"
      },
      "locationCodeableConcept": {
        "coding": [
          {
            "id": "d49c4a46-8fec-5672-af5f-4cce13267d8e",
            "system": "http://terminology.hl7.org/CodeSystem/ex-serviceplace",
            "code": "21",
            "display": "Inpatient Hospital"
          }
        ]
      },
      "net": {
        "value": 431.4,
        "currency": "USD"
      },
      "adjudication": [
        {
          "category": {
            "coding": [
              {
                "id": "e33f1fb9-52f8-5909-b4b3-ddd8cd5abfb6",
                "system": "https://bluebutton.cms.gov/resources/codesystem/adjudication",
                "code": "https://bluebutton.cms.gov/resources/variables/line_coinsrnc_amt",
                "display": "Line Beneficiary Coinsurance Amount"
              }
            ]
          },
          "amount": {
            "value": 86.28,
            "currency": "USD"
          }
        },
        {
          "category": {
            "coding": [
              {
                "id": "013c0dff-5302-5406-95cc-6c3a033aad23",
                "system": "https://bluebutton.cms.gov/resources/codesystem/adjudication",
                "code": "https://bluebutton.cms.gov/resources/variables/line_prvdr_pmt_amt",
                "display": "Line Provider Payment Amount"
              }
            ]
          },
          "amount": {
            "value": 345.12,
            "currency": "USD"
          }
        },
        {
          "category": {
            "coding": [
              {
                "id": "d7c793d6-cfa7-5320-bc80-8dcdd65bba53",
                "system": "https://bluebutton.cms.gov/resources/codesystem/adjudication",
                "code": "https://bluebutton.cms.gov/resources/variables/line_sbmtd_chrg_amt",
                "display": "Line Submitted Charge Amount"
              }
            ]
          },
          "amount": {
            "value": 431.4,
            "currency": "USD"
          }
        },
        {
          "category": {
            "coding": [
              {
                "id": "28126ede-f7f8-5665-990c-c10ba934bc40",
                "system": "https://bluebutton.cms.gov/resources/codesystem/adjudication",
                "code": "https://bluebutton.cms.gov/resources/variables/line_alowd_chrg_amt",
                "display": "Line Allowed Charge Amount"
              }
            ]
          },
          "amount": {
            "value": 431.4,
            "currency": "USD"
          }
        },
        {
          "category": {
            "coding": [
              {
                "id": "b0971df9-d97f-5f01-8903-9cfd3330386e",
                "system": "https://bluebutton.cms.gov/resources/codesystem/adjudication",
                "code": "https://bluebutton.cms.gov/resources/variables/line_bene_ptb_ddctbl_amt",
                "display": "Line Beneficiary Part B Deductible Amount"
              }
            ]
          },
          "amount": {
            "value": 0,
            "currency": "USD"
          }
        },
        {
          "category": {
            "coding": [
              {
                "id": "8ef27c8a-80f3-5ec1-a673-c894f368a84b",
                "system": "https://bluebutton.cms.gov/resources/codesystem/adjudication",
                "code": "https://bluebutton.cms.gov/resources/variables/line_prcsg_ind_cd",
                "display": "Line Processing Indicator Code"
              }
            ]
          }
        }
      ]
    },
    {
      "sequence": 18,
      "category": {
        "coding": [
          {
            "id": "295af87c-7be2-5716-a727-d01c781be9a4",
            "system": "https://bluebutton.cms.gov/resources/variables/line_cms_type_srvc_cd",
            "code": "1",
            "display": "Medical care"
          }
        ]
      },
      "productOrService": {
        "coding": [
          {
            "id": "bc7c811b-852e-51b6-a7e6-b1128c16e161",
            "system": "http://snomed.info/sct",
            "code": "68071007",
            "display": "Dental fluoride treatment (procedure)"
          }
        ],
        "text": "Dental fluoride treatment (procedure)"
      },
      "servicedPeriod": {
        "start": "2019-11-16T20:58:10+00:00",
        "end": "2019-11-17T02:30:31+00:00"
      },
      "locationCodeableConcept": {
        "coding": [
          {
            "id": "d49c4a46-8fec-5672-af5f-4cce13267d8e",
            "system": "http://terminology.hl7.org/CodeSystem/ex-serviceplace",
            "code": "21",
            "display": "Inpatient Hospital"
          }
        ]
      },
      "net": {
        "value": 431.4,
        "currency": "USD"
      },
      "adjudication": [
        {
          "category": {
            "coding": [
              {
                "id": "e33f1fb9-52f8-5909-b4b3-ddd8cd5abfb6",
                "system": "https://bluebutton.cms.gov/resources/codesystem/adjudication",
                "code": "https://bluebutton.cms.gov/resources/variables/line_coinsrnc_amt",
                "display": "Line Beneficiary Coinsurance Amount"
              }
            ]
          },
          "amount": {
            "value": 86.28,
            "currency": "USD"
          }
        },
        {
          "category": {
            "coding": [
              {
                "id": "013c0dff-5302-5406-95cc-6c3a033aad23",
                "system": "https://bluebutton.cms.gov/resources/codesystem/adjudication",
                "code": "https://bluebutton.cms.gov/resources/variables/line_prvdr_pmt_amt",
                "display": "Line Provider Payment Amount"
              }
            ]
          },
          "amount": {
            "value": 345.12,
            "currency": "USD"
          }
        },
        {
          "category": {
            "coding": [
              {
                "id": "d7c793d6-cfa7-5320-bc80-8dcdd65bba53",
                "system": "https://bluebutton.cms.gov/resources/codesystem/adjudication",
                "code": "https://bluebutton.cms.gov/resources/variables/line_sbmtd_chrg_amt",
                "display": "Line Submitted Charge Amount"
              }
            ]
          },
          "amount": {
            "value": 431.4,
            "currency": "USD"
          }
        },
        {
          "category": {
            "coding": [
              {
                "id": "28126ede-f7f8-5665-990c-c10ba934bc40",
                "system": "https://bluebutton.cms.gov/resources/codesystem/adjudication",
                "code": "https://bluebutton.cms.gov/resources/variables/line_alowd_chrg_amt",
                "display": "Line Allowed Charge Amount"
              }
            ]
          },
          "amount": {
            "value": 431.4,
            "currency": "USD"
          }
        },
        {
          "category": {
            "coding": [
              {
                "id": "b0971df9-d97f-5f01-8903-9cfd3330386e",
                "system": "https://bluebutton.cms.gov/resources/codesystem/adjudication",
                "code": "https://bluebutton.cms.gov/resources/variables/line_bene_ptb_ddctbl_amt",
                "display": "Line Beneficiary Part B Deductible Amount"
              }
            ]
          },
          "amount": {
            "value": 0,
            "currency": "USD"
          }
        },
        {
          "category": {
            "coding": [
              {
                "id": "8ef27c8a-80f3-5ec1-a673-c894f368a84b",
                "system": "https://bluebutton.cms.gov/resources/codesystem/adjudication",
                "code": "https://bluebutton.cms.gov/resources/variables/line_prcsg_ind_cd",
                "display": "Line Processing Indicator Code"
              }
            ]
          }
        }
      ]
    },
    {
      "sequence": 19,
      "category": {
        "coding": [
          {
            "id": "295af87c-7be2-5716-a727-d01c781be9a4",
            "system": "https://bluebutton.cms.gov/resources/variables/line_cms_type_srvc_cd",
            "code": "1",
            "display": "Medical care"
          }
        ]
      },
      "productOrService": {
        "coding": [
          {
            "id": "b272273c-a0c0-54b7-b121-b720148ffaa6",
            "system": "http://snomed.info/sct",
            "code": "243085009",
            "display": "Oral health education (procedure)"
          }
        ],
        "text": "Oral health education (procedure)"
      },
      "servicedPeriod": {
        "start": "2019-11-16T20:58:10+00:00",
        "end": "2019-11-17T02:30:31+00:00"
      },
      "locationCodeableConcept": {
        "coding": [
          {
            "id": "d49c4a46-8fec-5672-af5f-4cce13267d8e",
            "system": "http://terminology.hl7.org/CodeSystem/ex-serviceplace",
            "code": "21",
            "display": "Inpatient Hospital"
          }
        ]
      },
      "net": {
        "value": 431.4,
        "currency": "USD"
      },
      "adjudication": [
        {
          "category": {
            "coding": [
              {
                "id": "e33f1fb9-52f8-5909-b4b3-ddd8cd5abfb6",
                "system": "https://bluebutton.cms.gov/resources/codesystem/adjudication",
                "code": "https://bluebutton.cms.gov/resources/variables/line_coinsrnc_amt",
                "display": "Line Beneficiary Coinsurance Amount"
              }
            ]
          },
          "amount": {
            "value": 86.28,
            "currency": "USD"
          }
        },
        {
          "category": {
            "coding": [
              {
                "id": "013c0dff-5302-5406-95cc-6c3a033aad23",
                "system": "https://bluebutton.cms.gov/resources/codesystem/adjudication",
                "code": "https://bluebutton.cms.gov/resources/variables/line_prvdr_pmt_amt",
                "display": "Line Provider Payment Amount"
              }
            ]
          },
          "amount": {
            "value": 345.12,
            "currency": "USD"
          }
        },
        {
          "category": {
            "coding": [
              {
                "id": "d7c793d6-cfa7-5320-bc80-8dcdd65bba53",
                "system": "https://bluebutton.cms.gov/resources/codesystem/adjudication",
                "code": "https://bluebutton.cms.gov/resources/variables/line_sbmtd_chrg_amt",
                "display": "Line Submitted Charge Amount"
              }
            ]
          },
          "amount": {
            "value": 431.4,
            "currency": "USD"
          }
        },
        {
          "category": {
            "coding": [
              {
                "id": "28126ede-f7f8-5665-990c-c10ba934bc40",
                "system": "https://bluebutton.cms.gov/resources/codesystem/adjudication",
                "code": "https://bluebutton.cms.gov/resources/variables/line_alowd_chrg_amt",
                "display": "Line Allowed Charge Amount"
              }
            ]
          },
          "amount": {
            "value": 431.4,
            "currency": "USD"
          }
        },
        {
          "category": {
            "coding": [
              {
                "id": "b0971df9-d97f-5f01-8903-9cfd3330386e",
                "system": "https://bluebutton.cms.gov/resources/codesystem/adjudication",
                "code": "https://bluebutton.cms.gov/resources/variables/line_bene_ptb_ddctbl_amt",
                "display": "Line Beneficiary Part B Deductible Amount"
              }
            ]
          },
          "amount": {
            "value": 0,
            "currency": "USD"
          }
        },
        {
          "category": {
            "coding": [
              {
                "id": "8ef27c8a-80f3-5ec1-a673-c894f368a84b",
                "system": "https://bluebutton.cms.gov/resources/codesystem/adjudication",
                "code": "https://bluebutton.cms.gov/resources/variables/line_prcsg_ind_cd",
                "display": "Line Processing Indicator Code"
              }
            ]
          }
        }
      ]
    }
  ],
  "meta": {
    "versionId": "1",
    "lastUpdated": "2025-10-29T03:39:53.068Z",
    "source": "synthea",
    "security": [
      {
        "id": "c90c2bc6-7d2d-564a-8b1f-4e7ea2e4674e",
        "system": "https://www.icanbwell.com/owner",
        "code": "synthea"
      },
      {
        "id": "be7572b0-aa9d-5c31-8875-ce6370a625ba",
        "system": "https://www.icanbwell.com/access",
        "code": "synthea"
      },
      {
        "id": "231ff57f-2dd1-5037-a3ba-0fa2d2c91939",
        "system": "https://www.icanbwell.com/vendor",
        "code": "synthea"
      },
      {
        "id": "2762e847-4e8f-508b-a05f-76c65f6503e9",
        "system": "https://www.icanbwell.com/sourceAssigningAuthority",
        "code": "synthea"
      }
    ],
    "tag": [
      {
        "system": "https://www.icanbwell.com/uuid",
        "code": "b01b6e66-0fdd-877d-03c1-aceab4d7c941"
      }
    ]
  },
  "outcome": "complete",
  "patient": {
    "extension": [
      {
        "id": "sourceId",
        "url": "https://www.icanbwell.com/sourceId",
        "valueString": "Patient/ac59c2e9-d108-03bd-b501-c330d80054eb"
      },
      {
        "id": "uuid",
        "url": "https://www.icanbwell.com/uuid",
        "valueString": "Patient/ac59c2e9-d108-03bd-b501-c330d80054eb"
      },
      {
        "id": "sourceAssigningAuthority",
        "url": "https://www.icanbwell.com/sourceAssigningAuthority",
        "valueString": "synthea"
      }
    ],
    "reference": "Patient/ac59c2e9-d108-03bd-b501-c330d80054eb"
  },
  "payment": {
    "amount": {
      "value": 4141.44,
      "currency": "USD"
    }
  },
  "provider": {
    "extension": [
      {
        "id": "sourceId",
        "url": "https://www.icanbwell.com/sourceId",
        "valueString": "Practitioner/unknown"
      },
      {
        "id": "uuid",
        "url": "https://www.icanbwell.com/uuid",
        "valueString": "Practitioner/9d8ad331-8657-51af-92ca-8de68dc7512d"
      },
      {
        "id": "sourceAssigningAuthority",
        "url": "https://www.icanbwell.com/sourceAssigningAuthority",
        "valueString": "synthea"
      }
    ],
    "reference": "Practitioner/unknown"
  },
  "referral": {
    "extension": [
      {
        "id": "sourceId",
        "url": "https://www.icanbwell.com/sourceId",
        "valueString": "#referral"
      },
      {
        "id": "uuid",
        "url": "https://www.icanbwell.com/uuid",
        "valueString": "6954e121-00c1-5e7a-b3f0-f3e1f1c7833e"
      },
      {
        "id": "sourceAssigningAuthority",
        "url": "https://www.icanbwell.com/sourceAssigningAuthority",
        "valueString": "synthea"
      }
    ],
    "reference": "#referral"
  },
  "resourceType": "ExplanationOfBenefit",
  "status": "active",
  "total": [
    {
      "category": {
        "coding": [
          {
            "id": "e436baef-8c84-502b-951d-48ce56cb511a",
            "system": "http://terminology.hl7.org/CodeSystem/adjudication",
            "code": "submitted",
            "display": "Submitted Amount"
          }
        ],
        "text": "Submitted Amount"
      },
      "amount": {
        "value": 5262.35,
        "currency": "USD"
      }
    }
  ],
  "type": {
    "coding": [
      {
        "id": "d44cf849-f473-56d4-94b1-6a4f41c05efc",
        "system": "http://terminology.hl7.org/CodeSystem/claim-type",
        "code": "professional"
      }
    ]
  },
  "use": "claim"
}