{
  "billablePeriod": {
    "start": "2021-05-15T21:13:10+00:00",
    "end": "2022-05-15T21:13:10+00:00"
  },
  "careTeam": [
    {
      "sequence": 1,
      "provider": {
        "extension": [
          {
            "id": "sourceId",
            "url": "https://www.icanbwell.com/sourceId",
            "valueString": "Practitioner/unknown"
          },
          {
            "id": "uuid",
            "url": "https://www.icanbwell.com/uuid",
            "valueString": "Practitioner/9d8ad331-8657-51af-92ca-8de68dc7512d"
          },
          {
            "id": "sourceAssigningAuthority",
            "url": "https://www.icanbwell.com/sourceAssigningAuthority",
            "valueString": "synthea"
          }
        ],
        "reference": "Practitioner/unknown"
      },
      "role": {
        "coding": [
          {
            "id": "552798d5-5f9a-5b74-a48c-e85209b21037",
            "system": "http://terminology.hl7.org/CodeSystem/claimcareteamrole",
            "code": "primary",
            "display": "Primary provider"
          }
        ]
      }
    }
  ],
  "claim": {
    "extension": [
      {
        "id": "sourceId",
        "url": "https://www.icanbwell.com/sourceId",
        "valueString": "Claim/ac59c2e9-d108-03bd-d7f9-46dff2932694"
      },
      {
        "id": "uuid",
        "url": "https://www.icanbwell.com/uuid",
        "valueString": "Claim/ac59c2e9-d108-03bd-d7f9-46dff2932694"
      },
      {
        "id": "sourceAssigningAuthority",
        "url": "https://www.icanbwell.com/sourceAssigningAuthority",
        "valueString": "synthea"
      }
    ],
    "reference": "Claim/ac59c2e9-d108-03bd-d7f9-46dff2932694"
  },
  "contained": [
    {
      "resourceType": "ServiceRequest",
      "id": "referral",
      "status": "completed",
      "intent": "order",
      "subject": {
        "extension": [
          {
            "id": "sourceId",
            "url": "https://www.icanbwell.com/sourceId",
            "valueString": "Patient/ac59c2e9-d108-03bd-b501-c330d80054eb"
          },
          {
            "id": "uuid",
            "url": "https://www.icanbwell.com/uuid",
            "valueString": "Patient/ac59c2e9-d108-03bd-b501-c330d80054eb"
          },
          {
            "id": "sourceAssigningAuthority",
            "url": "https://www.icanbwell.com/sourceAssigningAuthority",
            "valueString": "synthea"
          }
        ],
        "reference": "Patient/ac59c2e9-d108-03bd-b501-c330d80054eb"
      },
      "requester": {
        "extension": [
          {
            "id": "sourceId",
            "url": "https://www.icanbwell.com/sourceId",
            "valueString": "Practitioner/unknown"
          },
          {
            "id": "uuid",
            "url": "https://www.icanbwell.com/uuid",
            "valueString": "Practitioner/9d8ad331-8657-51af-92ca-8de68dc7512d"
          },
          {
            "id": "sourceAssigningAuthority",
            "url": "https://www.icanbwell.com/sourceAssigningAuthority",
            "valueString": "synthea"
          }
        ],
        "reference": "Practitioner/unknown"
      },
      "performer": [
        {
          "extension": [
            {
              "id": "sourceId",
              "url": "https://www.icanbwell.com/sourceId",
              "valueString": "Practitioner/unknown"
            },
            {
              "id": "uuid",
              "url": "https://www.icanbwell.com/uuid",
              "valueString": "Practitioner/9d8ad331-8657-51af-92ca-8de68dc7512d"
            },
            {
              "id": "sourceAssigningAuthority",
              "url": "https://www.icanbwell.com/sourceAssigningAuthority",
              "valueString": "synthea"
            }
          ],
          "reference": "Practitioner/unknown"
        }
      ]
    },
    {
      "resourceType": "Coverage",
      "id": "coverage",
      "status": "active",
      "type": {
        "text": "Humana"
      },
      "beneficiary": {
        "extension": [
          {
            "id": "sourceId",
            "url": "https://www.icanbwell.com/sourceId",
            "valueString": "Patient/ac59c2e9-d108-03bd-b501-c330d80054eb"
          },
          {
            "id": "uuid",
            "url": "https://www.icanbwell.com/uuid",
            "valueString": "Patient/ac59c2e9-d108-03bd-b501-c330d80054eb"
          },
          {
            "id": "sourceAssigningAuthority",
            "url": "https://www.icanbwell.com/sourceAssigningAuthority",
            "valueString": "synthea"
          }
        ],
        "reference": "Patient/ac59c2e9-d108-03bd-b501-c330d80054eb"
      },
      "payor": [
        {
          "display": "Humana"
        }
      ]
    }
  ],
  "created": "2021-05-15T21:13:10+00:00",
  "facility": {
    "extension": [
      {
        "id": "sourceId",
        "url": "https://www.icanbwell.com/sourceId",
        "valueString": "Location/unknown"
      },
      {
        "id": "uuid",
        "url": "https://www.icanbwell.com/uuid",
        "valueString": "Location/9d8ad331-8657-51af-92ca-8de68dc7512d"
      },
      {
        "id": "sourceAssigningAuthority",
        "url": "https://www.icanbwell.com/sourceAssigningAuthority",
        "valueString": "synthea"
      }
    ],
    "reference": "Location/unknown",
    "display": "MARLBOROUGH HOSPITAL CORP"
  },
  "id": "b1fd3363-641e-44bd-583b-c3042e980811",
  "identifier": [
    {
      "system": "https://bluebutton.cms.gov/resources/variables/clm_id",
      "value": "ac59c2e9-d108-03bd-d7f9-46dff2932694"
    },
    {
      "system": "https://bluebutton.cms.gov/resources/identifier/claim-group",
      "value": "99999999999"
    },
    {
      "id": "sourceId",
      "system": "https://www.icanbwell.com/sourceId",
      "value": "b1fd3363-641e-44bd-583b-c3042e980811"
    },
    {
      "id": "uuid",
      "system": "https://www.icanbwell.com/uuid",
      "value": "b1fd3363-641e-44bd-583b-c3042e980811"
    }
  ],
  "insurance": [
    {
      "focal": true,
      "coverage": {
        "extension": [
          {
            "id": "sourceId",
            "url": "https://www.icanbwell.com/sourceId",
            "valueString": "#coverage"
          },
          {
            "id": "uuid",
            "url": "https://www.icanbwell.com/uuid",
            "valueString": "ac7798ae-c8b1-5de1-befe-852987d3adeb"
          },
          {
            "id": "sourceAssigningAuthority",
            "url": "https://www.icanbwell.com/sourceAssigningAuthority",
            "valueString": "synthea"
          }
        ],
        "reference": "#coverage",
        "display": "Humana"
      }
    }
  ],
  "insurer": {
    "display": "Humana"
  },
  "item": [
    {
      "sequence": 1,
      "category": {
        "coding": [
          {
            "id": "295af87c-7be2-5716-a727-d01c781be9a4",
            "system": "https://bluebutton.cms.gov/resources/variables/line_cms_type_srvc_cd",
            "code": "1",
            "display": "Medical care"
          }
        ]
      },
      "productOrService": {
        "coding": [
          {
            "id": "60bbb4c8-3693-5a8b-9eec-849937666b45",
            "system": "http://snomed.info/sct",
            "code": "33879002",
            "display": "Administration of vaccine to produce active immunity (procedure)"
          }
        ],
        "text": "Administration of vaccine to produce active immunity (procedure)"
      },
      "servicedPeriod": {
        "start": "2021-05-15T20:58:10+00:00",
        "end": "2021-05-15T21:13:10+00:00"
      },
      "locationCodeableConcept": {
        "coding": [
          {
            "id": "d49c4a46-8fec-5672-af5f-4cce13267d8e",
            "system": "http://terminology.hl7.org/CodeSystem/ex-serviceplace",
            "code": "21",
            "display": "Inpatient Hospital"
          }
        ]
      },
      "encounter": [
        {
          "extension": [
            {
              "id": "sourceId",
              "url": "https://www.icanbwell.com/sourceId",
              "valueString": "Encounter/ac59c2e9-d108-03bd-21cd-b84455700ca6"
            },
            {
              "id": "uuid",
              "url": "https://www.icanbwell.com/uuid",
              "valueString": "Encounter/ac59c2e9-d108-03bd-21cd-b84455700ca6"
            },
            {
              "id": "sourceAssigningAuthority",
              "url": "https://www.icanbwell.com/sourceAssigningAuthority",
              "valueString": "synthea"
            }
          ],
          "reference": "Encounter/ac59c2e9-d108-03bd-21cd-b84455700ca6"
        }
      ]
    },
    {
      "sequence": 2,
      "informationSequence": [
        1
      ],
      "category": {
        "coding": [
          {
            "id": "295af87c-7be2-5716-a727-d01c781be9a4",
            "system": "https://bluebutton.cms.gov/resources/variables/line_cms_type_srvc_cd",
            "code": "1",
            "display": "Medical care"
          }
        ]
      },
      "productOrService": {
        "coding": [
          {
            "id": "a5221e4f-2334-586c-89ec-538117206e7e",
            "system": "http://hl7.org/fhir/sid/cvx",
            "code": "208",
            "display": "COVID-19, mRNA, LNP-S, PF, 30 mcg/0.3 mL dose"
          }
        ],
        "text": "COVID-19, mRNA, LNP-S, PF, 30 mcg/0.3 mL dose"
      },
      "servicedPeriod": {
        "start": "2021-05-15T20:58:10+00:00",
        "end": "2021-05-15T21:13:10+00:00"
      },
      "locationCodeableConcept": {
        "coding": [
          {
            "id": "d49c4a46-8fec-5672-af5f-4cce13267d8e",
            "system": "http://terminology.hl7.org/CodeSystem/ex-serviceplace",
            "code": "21",
            "display": "Inpatient Hospital"
          }
        ]
      },
      "net": {
        "value": 136,
        "currency": "USD"
      },
      "adjudication": [
        {
          "category": {
            "coding": [
              {
                "id": "e33f1fb9-52f8-5909-b4b3-ddd8cd5abfb6",
                "system": "https://bluebutton.cms.gov/resources/codesystem/adjudication",
                "code": "https://bluebutton.cms.gov/resources/variables/line_coinsrnc_amt",
                "display": "Line Beneficiary Coinsurance Amount"
              }
            ]
          },
          "amount": {
            "value": 27.200000000000003,
            "currency": "USD"
          }
        },
        {
          "category": {
            "coding": [
              {
                "id": "013c0dff-5302-5406-95cc-6c3a033aad23",
                "system": "https://bluebutton.cms.gov/resources/codesystem/adjudication",
                "code": "https://bluebutton.cms.gov/resources/variables/line_prvdr_pmt_amt",
                "display": "Line Provider Payment Amount"
              }
            ]
          },
          "amount": {
            "value": 108.80000000000001,
            "currency": "USD"
          }
        },
        {
          "category": {
            "coding": [
              {
                "id": "d7c793d6-cfa7-5320-bc80-8dcdd65bba53",
                "system": "https://bluebutton.cms.gov/resources/codesystem/adjudication",
                "code": "https://bluebutton.cms.gov/resources/variables/line_sbmtd_chrg_amt",
                "display": "Line Submitted Charge Amount"
              }
            ]
          },
          "amount": {
            "value": 136,
            "currency": "USD"
          }
        },
        {
          "category": {
            "coding": [
              {
                "id": "28126ede-f7f8-5665-990c-c10ba934bc40",
                "system": "https://bluebutton.cms.gov/resources/codesystem/adjudication",
                "code": "https://bluebutton.cms.gov/resources/variables/line_alowd_chrg_amt",
                "display": "Line Allowed Charge Amount"
              }
            ]
          },
          "amount": {
            "value": 136,
            "currency": "USD"
          }
        },
        {
          "category": {
            "coding": [
              {
                "id": "b0971df9-d97f-5f01-8903-9cfd3330386e",
                "system": "https://bluebutton.cms.gov/resources/codesystem/adjudication",
                "code": "https://bluebutton.cms.gov/resources/variables/line_bene_ptb_ddctbl_amt",
                "display": "Line Beneficiary Part B Deductible Amount"
              }
            ]
          },
          "amount": {
            "value": 0,
            "currency": "USD"
          }
        },
        {
          "category": {
            "coding": [
              {
                "id": "8ef27c8a-80f3-5ec1-a673-c894f368a84b",
                "system": "https://bluebutton.cms.gov/resources/codesystem/adjudication",
                "code": "https://bluebutton.cms.gov/resources/variables/line_prcsg_ind_cd",
                "display": "Line Processing Indicator Code"
              }
            ]
          }
        }
      ]
    }
  ],
  "meta": {
    "versionId": "1",
    "lastUpdated": "2025-10-29T03:40:15.525Z",
    "source": "synthea",
    "security": [
      {
        "id": "c90c2bc6-7d2d-564a-8b1f-4e7ea2e4674e",
        "system": "https://www.icanbwell.com/owner",
        "code": "synthea"
      },
      {
        "id": "be7572b0-aa9d-5c31-8875-ce6370a625ba",
        "system": "https://www.icanbwell.com/access",
        "code": "synthea"
      },
      {
        "id": "231ff57f-2dd1-5037-a3ba-0fa2d2c91939",
        "system": "https://www.icanbwell.com/vendor",
        "code": "synthea"
      },
      {
        "id": "2762e847-4e8f-508b-a05f-76c65f6503e9",
        "system": "https://www.icanbwell.com/sourceAssigningAuthority",
        "code": "synthea"
      }
    ],
    "tag": [
      {
        "system": "https://www.icanbwell.com/uuid",
        "code": "b1fd3363-641e-44bd-583b-c3042e980811"
      }
    ]
  },
  "outcome": "complete",
  "patient": {
    "extension": [
      {
        "id": "sourceId",
        "url": "https://www.icanbwell.com/sourceId",
        "valueString": "Patient/ac59c2e9-d108-03bd-b501-c330d80054eb"
      },
      {
        "id": "uuid",
        "url": "https://www.icanbwell.com/uuid",
        "valueString": "Patient/ac59c2e9-d108-03bd-b501-c330d80054eb"
      },
      {
        "id": "sourceAssigningAuthority",
        "url": "https://www.icanbwell.com/sourceAssigningAuthority",
        "valueString": "synthea"
      }
    ],
    "reference": "Patient/ac59c2e9-d108-03bd-b501-c330d80054eb"
  },
  "payment": {
    "amount": {
      "value": 108.80000000000001,
      "currency": "USD"
    }
  },
  "provider": {
    "extension": [
      {
        "id": "sourceId",
        "url": "https://www.icanbwell.com/sourceId",
        "valueString": "Practitioner/unknown"
      },
      {
        "id": "uuid",
        "url": "https://www.icanbwell.com/uuid",
        "valueString": "Practitioner/9d8ad331-8657-51af-92ca-8de68dc7512d"
      },
      {
        "id": "sourceAssigningAuthority",
        "url": "https://www.icanbwell.com/sourceAssigningAuthority",
        "valueString": "synthea"
      }
    ],
    "reference": "Practitioner/unknown"
  },
  "referral": {
    "extension": [
      {
        "id": "sourceId",
        "url": "https://www.icanbwell.com/sourceId",
        "valueString": "#referral"
      },
      {
        "id": "uuid",
        "url": "https://www.icanbwell.com/uuid",
        "valueString": "6954e121-00c1-5e7a-b3f0-f3e1f1c7833e"
      },
      {
        "id": "sourceAssigningAuthority",
        "url": "https://www.icanbwell.com/sourceAssigningAuthority",
        "valueString": "synthea"
      }
    ],
    "reference": "#referral"
  },
  "resourceType": "ExplanationOfBenefit",
  "status": "active",
  "total": [
    {
      "category": {
        "coding": [
          {
            "id": "e436baef-8c84-502b-951d-48ce56cb511a",
            "system": "http://terminology.hl7.org/CodeSystem/adjudication",
            "code": "submitted",
            "display": "Submitted Amount"
          }
        ],
        "text": "Submitted Amount"
      },
      "amount": {
        "value": 278.58,
        "currency": "USD"
      }
    }
  ],
  "type": {
    "coding": [
      {
        "id": "d44cf849-f473-56d4-94b1-6a4f41c05efc",
        "system": "http://terminology.hl7.org/CodeSystem/claim-type",
        "code": "professional"
      }
    ]
  },
  "use": "claim"
}